Folder: data-NaMO2F2/powder_X-ray_diffraction/room_temperature_experiments/NaTaO2F2/raw_data

Note: powder_X-ray_diffraction/README.md
# Powder X-Ray Diffraction Data for NaMO<sub>2</sub>F<sub>2</sub> (M = Nb<sup>5+</sup>, Ta<sup>5+</sup>)

**Author:** Ouail Zakary  
**ORCID:** [0000-0002-7793-3306](https://orcid.org/0000-0002-7793-3306)  
**E-mail:** [Ouail.Zakary@oulu.fi](mailto:Ouail.Zakary@oulu.fi)  
**Website:** [Ouail Zakary - webpage](https://cc.oulu.fi/~nmrwww/members/Ouail_Zakary.html)

This repository contains datasets of **Powder X-Ray Diffraction (PXRD)** data for the compounds NaNbO<sub>2</sub>F<sub>2</sub> and NaTaO<sub>2</sub>F<sub>2</sub>, recorded under both room temperature (RT) and variable temperature conditions.

## Overview of the Data

The dataset is organized into two main families of experiments:

1. **Room Temperature PXRD Data:**  
   **Folder:** `./room_temperature_experiments`
   - **NaNbO<sub>2</sub>F<sub>2</sub> Data:**  
     - [Raw Data](./room_temperature_experiments/NaNbO2F2/raw_data/)
     - [Rietveld Refinement Data](./room_temperature_experiments/NaNbO2F2/Rietveld_refinement/)
   - **NaTaO<sub>2</sub>F<sub>2</sub> Data:**  
     - [Raw Data](./room_temperature_experiments/NaTaO2F2/raw_data/)
     - [Rietveld Refinement Data](./room_temperature_experiments/NaTaO2F2/Rietveld_refinement/)

2. **Variable Temperature PXRD Data:**  
   **Folder:** `./variable-temperature_experiments`
   - **NaNbO<sub>2</sub>F<sub>2</sub> Data:**  
     - [Raw Data](./variable-temperature_experiments/NaNbO2F2/raw_data/)
     - [Rietveld Refinement Data](./variable-temperature_experiments/NaNbO2F2/Rietveld_refinement/)
   - **NaTaO<sub>2</sub>F<sub>2</sub> Data:**  
     - [Raw Data](./variable-temperature_experiments/NaTaO2F2/raw_data/)
     - [Rietveld Refinement Data](./variable-temperature_experiments/NaTaO2F2/Rietveld_refinement/)

## Methods

### PXRD Data Collection

Both RT and temperature-controlled PXRD patterns were recorded using a **PANalytical θ/θ Bragg–Brentano EMPYREAN** diffractometer (CuKα<sub>1+2</sub> radiations) equipped with a **PIXcel1D detector**. The collection methods are as follows:

- **Room Temperature PXRD Patterns:**  
  - **2θ Range:** 5° to 135°  
  - **Step Size:** 0.0131°  
  - **Total Acquisition Time:** Approximately 7h 30m  
  - **Sample Preparation:** Raw powders were dusted through a 63 μm sieve on a glass holder to minimize preferential grain orientation.

- **Temperature-Controlled PXRD Patterns:**  
  - **Temperature Range:** RT to 300°C using a **HTK 900 Anton Paar furnace attachment**  
  - **Sample Holder:** Glass ceramic Macor  
  - **Data Collection Intervals:** 20°C (25–220°C) and 10°C (220–300°C) increments with a heating rate of 5°C/min  
  - **Temperature Stabilization:** 20 minutes before each measurement  
  - **2θ Range:** 10° to 100°  
  - **Step Size:** 0.0131°  
  - **Total Acquisition Time:** 3 hours for each pattern.

### Rietveld Refinement

The **Rietveld refinement method** was employed for both the RT and temperature-controlled PXRD data using the **FullProf** software.

## Directory Structure

The foll

File: NaTaO2F2_rt.XY
! Initial file:   .\NaTaO2F2_rt.xrdml
! Initial format:  58
! WAVE (A):      1.54060     1.54060     1.00000
! REM : data have been multiplied by     1.0000
! X_data : 2 Theta (deg.)
! Y_data : Intensity (arb. units)
!     X         Y
!--------------------------------------------------------------------------------
     5.0299    24080
     5.4632    23695
     5.8965    23521
     6.3298    23188
     6.7631    23103
     7.1964    23504
     7.6297    22961
     8.0630    23056
     8.4963    22653
     8.9296    22351
     9.3629    21287
     9.7962    20534
    10.2295    20103
    10.6628    18845
    11.0961    26251
    11.5294    17999
    11.9627    16552
    12.3960    15997
    12.8293    15090
    13.2626    14625
    13.6959    14079
    14.1292    13721
    14.5625    13173
    14.9958    13121
    15.4291    12674
    15.8624    12275
    16.2957    12219
    16.7290    12052
    17.1623    11756
    17.5956    11425
    18.0289    11278
    18.4622    10989
    18.8955    10984
    19.3288    11974
    19.7621    31789
    20.1954    12537
    20.6287    10824
    21.0620    10499
    21.4953    10320
    21.9286    10352
    22.3619    10601
    22.7952     9996
    23.2285     9368
    23.6618     9912
    24.0951    11883
    24.5284    40756
    24.9617     9809
    25.3950     9323
    25.8283     8786
    26.2616    10120
    26.6949     8809
    27.1282     9503
    27.5615    10022
    27.9948   190986
    28.4281     9153
    28.8614     9082
    29.2947    11287
    29.7280    33983
    30.1613     8630
    30.5946     8267
    31.0279     7847
    31.4612     7684
    31.8945     7738
    32.3278     7949
    32.7611     8492
    33.1944    11076
    33.6277    12897
    34.0610    75229
    34.4943     7952
    34.9276    29451
    35.3608     8821
    35.7941     7320
    36.2274     7215
    36.6607     7730
    37.0940     7504
    37.5273     9234
    37.9606     9242
    38.3939     6829
    38.8272     6712
    39.2605     7040
    39.6938     6869
    40.1271     7980
    40.5604    16321
    40.9937     7315
    41.4270    37915
    41.8603     7211
    42.2936     6620
    42.7269     6537
    43.1602     6477
    43.5935     7263
    44.0268     6417
    44.4601     9886
    44.8934    15167
    45.3267     6495
    45.7600     7402
    46.1933     6944
    46.6266    11844
    47.0599     6800
    47.4932    15868
    47.9265    10380
    48.3598    10094
    48.7931    21630
    49.2264    10497
    49.6597     8035
    50.0930    10567
    50.5263    10410
    50.9596    18116
    51.3929     6951
    51.8262    18045
    52.2595     6934
    52.6928    16743
    53.1261     7927
    53.5594     7069
    53.9927     7363
    54.4260     6346
    54.8593     7004
    55.2926     6605
    55.7259    11565
    56.1592    10152
    56.5925    16028
    57.0258     8645
    57.4591    27028
    57.8924     8850
    58.3257    16177
    58.7590     7980
    59.1923    19233
    59.6256    16190
    60.0589    30552
    60.4922     7222
    60.9255    16464
    61.3588    17140
    61.7921     6848
    62.2254     6317
    62.6587     6238
    63.0920     6225
    63.5253     6166
    63.9586    11408
    64.3919     9372
    64.8252     6564
    65.2585     6470
    65.6918     6374
    66.1251     5939
    66.5584     5813
    66.9917     6551
    67.4250     5883
    67.8583     5961
    68.2916     6526
    68.7249     6751
    69.1582    10047
    69.5915     7273
    70.0248    11153
    70.4581    12767
    70.8914    10079
    71.3247    10431
    71.7580     9148
    72.1913     7567
    72.6246     7214
    73.0579    11645
    73.4912    11326
    73.9245    11781
    74.3578     7926
    74.7911     9790
    75.2244     6088
    75.6577     5987
    76.0910     6341
    76.5243     7563
    76.9576     8128
    77.3909     8953
    77.8242     8995
    78.2575     6874
    78.6908     9424
    79.1241     7934
    79.5574     9695
    79.9907     9251
    80.4240     9113
    80.8573    14092
    81.2906     8705
    81.7239     8133
    82.1572     6279
    82.5905    10858
    83.0238     8436
    83.4571     6273
    83.8904     6922
    84.3237     7440
    84.7570     6248
    85.1903     6197
    85.6236     7416
    86.0569     9304
    86.4902     7021
    86.9235     8510
    87.3568     9052
    87.7901     6900
    88.2234     9863
    88.6567     7502
    89.0900     6977
    89.5233     6770
    89.9566     8414
    90.3899     7098
    90.8232     8526
    91.2565     7326
    91.6898    10585
    92.1231     8024
    92.5564     7162
    92.9897     7212
    93.4230     7785
    93.8563     6210
    94.2896     5999
    94.7229     7672
    95.1562     8772
    95.5895     7038
    96.0228     6153
    96.4561     5953
    96.8894     6641
    97.3227     8079
    97.7560    11067
    98.1893     8218
    98.6226     6398
    99.0559     9591
    99.4892     9229
    99.9224     9825
   100.3558     8679
   100.7890     6532
   101.2224     6698
   101.6556     9165
   102.0889     9679
   102.5222     6970
   102.9555     5959
   103.3888     6076
   103.8221     6162
   104.2554     6266
   104.6887    10108
   105.1220     7251
   105.5553     6199
   105.9886     6430
   106.4219     8709
   106.8552     9591
   107.2885     9387
   107.7218     7837
   108.1551     7358
   108.5884     6630
   109.0217     8121
   109.4550     7282
   109.8883     6229
   110.3216     6417
   110.7549     7013
   111.1882     7136
   111.6215     6504
   112.0548     6274
   112.4881     6375
   112.9214     6370
   113.3547     6815
   113.7880    11051
   114.2213    11164
   114.6546     8432
   115.0879     7613
   115.5212     6841
   115.9545     7193
   116.3878     7522
   116.8211     8333
   117.2544     7892
   117.6877    10477
   118.1210     8485
   118.5543    11776
   118.9876    11033
   119.4209     8343
   119.8542     8473
   120.2875     8519
   120.7208     9780
   121.1541    10226
   121.5874    10229
   122.0207     9123
   122.4540    11118
   122.8873    10439
   123.3206     8223
   123.7539     7341
   124.1872     8588
   124.6205     8023
   125.0538    10290
   125.4871     8199
   125.9204     7562
   126.3537     7492
   126.7870     8588
   127.2203     7911
   127.6536     7993
   128.0869    10313
   128.5202     8055
   128.9535     8295
   129.3868     7327
   129.8201     8884
   130.2534     8159
   130.6867    10648
   131.1200     8559
   131.5533     9747
   131.9866     9920
   132.4199     8360
   132.8532     8291
   133.2865     9193
   133.7198     8569
   134.1531     8850
   134.5864     7925
   134.9934     7577