Folder: data-NaMO2F2/powder_X-ray_diffraction/variable-temperature_experiments/NaNbO2F2/raw_data (part 3)

File: 230°C.XY
! Initial file:   D:\ZAKARY_OUAIL\MA_THESE\Deuxième_année_de_thèse\DRX\Affinement_DRX\Fullprof\Thermodiff3-nuit_NaNbO2F2\230°C\NaNbO2F2-Lent_230°C.xrdml
! Initial format:  58
! WAVE (A):      1.54060     1.54060     1.00000
! REM : data have been multiplied by     1.0000
! X_data : 2 Theta (deg.)
! Y_data : Intensity (arb. units)
!     X         Y
!--------------------------------------------------------------------------------
    10.0116     7619
    10.3136     7540
    10.6156     7641
    10.9176     8251
    11.2196    54465
    11.5216     7855
    11.8236     7762
    12.1256     8275
    12.4276     8031
    12.7296     8011
    13.0316     8071
    13.3336     7827
    13.6356     7815
    13.9376     7930
    14.2395     7781
    14.5415     9533
    14.8435     7689
    15.1455     7621
    15.4475     7866
    15.7495     7625
    16.0515     7754
    16.3535     7695
    16.6555     7576
    16.9575     7421
    17.2595     7340
    17.5615     7310
    17.8635     7417
    18.1655     7311
    18.4675     7082
    18.7695     7165
    19.0715     7129
    19.3735     7591
    19.6755     9217
    19.9775    10356
    20.2795     7466
    20.5815     7498
    20.8835     7355
    21.1855     7362
    21.4875     7485
    21.7895     7504
    22.0915     7277
    22.3935     7618
    22.6954    11511
    22.9974     7512
    23.2994     7597
    23.6014     7604
    23.9034    14481
    24.2054    13602
    24.5074     7445
    24.8094     7447
    25.1114     7308
    25.4134     7245
    25.7154     7430
    26.0174     7311
    26.3194     7208
    26.6214     7300
    26.9234     7117
    27.2254     7574
    27.5274     7275
    27.8294    10486
    28.1314    12523
    28.4334     7863
    28.7354     7457
    29.0374    25928
    29.3394    13737
    29.6414     7237
    29.9434     7148
    30.2454     6864
    30.5474     7175
    30.8494     7080
    31.1514     6690
    31.4533     6919
    31.7553     6786
    32.0573     6953
    32.3593     7029
    32.6613     7015
    32.9633    14318
    33.2653     7101
    33.5673     7621
    33.8693     7252
    34.1713    13491
    34.4733     6588
    34.7753     7125
    35.0773     7380
    35.3793     6843
    35.6813     6504
    35.9833     6567
    36.2853     6662
    36.5873     8534
    36.8893     6602
    37.1913     6456
    37.4933     7401
    37.7953     9547
    38.0973     6691
    38.3993     6413
    38.7013     6323
    39.0033     6464
    39.3053     8097
    39.6073     6383
    39.9092     6437
    40.2112     7890
    40.5132     6586
    40.8152     6489
    41.1172    11921
    41.4192     6473
    41.7212     6432
    42.0232     6496
    42.3252     6493
    42.6272     6309
    42.9292     6304
    43.2312     6528
    43.5332     7293
    43.8352     6482
    44.1372     6492
    44.4392     6835
    44.7412     9184
    45.0432     6388
    45.3452     6538
    45.6472     6498
    45.9492     6817
    46.2512    12671
    46.5532     6485
    46.8552     6585
    47.1572     6488
    47.4592     8675
    47.7612     7525
    48.0632     8723
    48.3652     8372
    48.6671     7045
    48.9691     7154
    49.2711    12720
    49.5731     6869
    49.8751    10320
    50.1771     7301
    50.4791     7637
    50.7811     8191
    51.0831     6568
    51.3851     6601
    51.6871    13483
    51.9891     7023
    52.2911     6306
    52.5931     6355
    52.8951     6555
    53.1971     6302
    53.4991     6362
    53.8011     6435
    54.1031     6228
    54.4051     6123
    54.7071     6137
    55.0091     6256
    55.3111     6356
    55.6131     7732
    55.9151     9377
    56.2171     6865
    56.5191     8211
    56.8211     8609
    57.1231     6579
    57.4250     6577
    57.7270     7494
    58.0290     8397
    58.3310     6558
    58.6330     7738
    58.9350    10469
    59.2370    10086
    59.5390     6387
    59.8410     6479
    60.1430     8019
    60.4450     6475
    60.7470     7611
    61.0490     6538
    61.3510    10149
    61.6530     7423
    61.9550     6221
    62.2570     6134
    62.5590     5963
    62.8610     6054
    63.1630     6438
    63.4650     7531
    63.7670     6368
    64.0690     6123
    64.3710     7211
    64.6730     6265
    64.9750     6206
    65.2770     6047
    65.5790     6131
    65.8810     5921
    66.1829     6060
    66.4849     6210
    66.7869     6029
    67.0889     5845
    67.3909     5920
    67.6929     5995
    67.9949     5971
    68.2969     5921
    68.5989     6106
    68.9009     6895
    69.2029     7256
    69.5049     8049
    69.8069     7030
    70.1089     6559
    70.4109     6128
    70.7129     6807
    71.0149     6263
    71.3169     5991
    71.6189     6335
    71.9209     8244
    72.2229     6801
    72.5249     6248
    72.8269     6318
    73.1289     6100
    73.4309     6445
    73.7329     6013
    74.0349     6264
    74.3369     6941
    74.6388     6249
    74.9408     6110
    75.2428     5920
    75.5448     5889
    75.8468     6063
    76.1488     5884
    76.4508     6302
    76.7528     7186
    77.0548     6298
    77.3568     5885
    77.6588     5956
    77.9608     5892
    78.2628     5821
    78.5648     5960
    78.8668     6308
    79.1688     6454
    79.4708     6103
    79.7728     6392
    80.0748     6247
    80.3768     6015
    80.6788     6706
    80.9808     6152
    81.2828     6167
    81.5848     6330
    81.8868     6045
    82.1888     6182
    82.4908     6397
    82.7928     5866
    83.0947     6114
    83.3967     5864
    83.6987     5842
    84.0007     5909
    84.3027     6072
    84.6047     6361
    84.9067     5904
    85.2087     5743
    85.5107     5821
    85.8127     5839
    86.1147     5930
    86.4167     6024
    86.7187     6317
    87.0207     6607
    87.3227     6102
    87.6247     5809
    87.9267     6247
    88.2287     6151
    88.5307     5952
    88.8327     6275
    89.1347     6319
    89.4367     6834
    89.7387     6496
    90.0407     6069
    90.3427     5820
    90.6447     5691
    90.9467     5884
    91.2487     6125
    91.5507     6186
    91.8526     6150
    92.1546     6522
    92.4566     6202
    92.7586     5909
    93.0606     5806
    93.3626     5778
    93.6646     6092
    93.9666     6039
    94.2686     5664
    94.5706     6326
    94.8726     6147
    95.1746     5842
    95.4766     6224
    95.7786     6214
    96.0806     5978
    96.3826     5717
    96.6846     5854
    96.9866     6012
    97.2886     5960
    97.5906     6120
    97.8926     5815
    98.1946     5810
    98.4966     5901
    98.7986     5806
    99.1006     5787
    99.4026     5754
    99.7046     5682
    99.9934     5757

File: 240°C.XY
! Initial file:   D:\ZAKARY_OUAIL\MA_THESE\Deuxième_année_de_thèse\DRX\Affinement_DRX\Fullprof\Thermodiff3-nuit_NaNbO2F2\240°C\NaNbO2F2-Lent_240°C.xrdml
! Initial format:  58
! WAVE (A):      1.54060     1.54060     1.00000
! REM : data have been multiplied by     1.0000
! X_data : 2 Theta (deg.)
! Y_data : Intensity (arb. units)
!     X         Y
!--------------------------------------------------------------------------------
    10.0116     7515
    10.3136     7622
    10.6156     7558
    10.9176     7996
    11.2196    55251
    11.5216     7634
    11.8236     8195
    12.1256     7975
    12.4276     8115
    12.7296     7874
    13.0316     7906
    13.3336     7867
    13.6356     7889
    13.9376     7856
    14.2395     7822
    14.5415     9414
    14.8435     7532
    15.1455     7551
    15.4475     7592
    15.7495     7820
    16.0515     7675
    16.3535     7707
    16.6555     7616
    16.9575     7481
    17.2595     7498
    17.5615     7368
    17.8635     7560
    18.1655     7187
    18.4675     7212
    18.7695     7038
    19.0715     7098
    19.3735     7565
    19.6755     9241
    19.9775     9967
    20.2795     7466
    20.5815     7520
    20.8835     7298
    21.1855     7324
    21.4875     7526
    21.7895     7506
    22.0915     7463
    22.3935     7512
    22.6954    10982
    22.9974     7377
    23.2994     7587
    23.6014     7688
    23.9034    14381
    24.2054    12592
    24.5074     7427
    24.8094     7448
    25.1114     7268
    25.4134     7328
    25.7154     7167
    26.0174     7167
    26.3194     7206
    26.6214     7181
    26.9234     7171
    27.2254     7505
    27.5274     7404
    27.8294    10674
    28.1314    11618
    28.4334     7644
    28.7354     7684
    29.0374    26038
    29.3394    13311
    29.6414     7495
    29.9434     6845
    30.2454     6977
    30.5474     6955
    30.8494     6942
    31.1514     7039
    31.4533     6768
    31.7553     6828
    32.0573     6890
    32.3593     7006
    32.6613     6844
    32.9633    14534
    33.2653     6997
    33.5673     7827
    33.8693     7057
    34.1713    13429
    34.4733     6723
    34.7753     7359
    35.0773     7455
    35.3793     6660
    35.6813     6457
    35.9833     6592
    36.2853     6596
    36.5873     8336
    36.8893     6419
    37.1913     6537
    37.4933     7279
    37.7953     8897
    38.0973     6488
    38.3993     6348
    38.7013     6586
    39.0033     6670
    39.3053     7990
    39.6073     6436
    39.9092     6283
    40.2112     8184
    40.5132     6641
    40.8152     6654
    41.1172    11728
    41.4192     6342
    41.7212     6342
    42.0232     6316
    42.3252     6316
    42.6272     6340
    42.9292     6317
    43.2312     6358
    43.5332     7427
    43.8352     6532
    44.1372     6487
    44.4392     6685
    44.7412     8448
    45.0432     6324
    45.3452     6272
    45.6472     6378
    45.9492     6758
    46.2512    12389
    46.5532     6439
    46.8552     6540
    47.1572     6408
    47.4592     8531
    47.7612     7298
    48.0632     9520
    48.3652     7806
    48.6671     6816
    48.9691     7117
    49.2711    11706
    49.5731     6965
    49.8751    11242
    50.1771     7183
    50.4791     7493
    50.7811     8189
    51.0831     6414
    51.3851     6527
    51.6871    14193
    51.9891     7042
    52.2911     6535
    52.5931     6559
    52.8951     6556
    53.1971     6147
    53.4991     6308
    53.8011     6341
    54.1031     6345
    54.4051     6313
    54.7071     6257
    55.0091     6405
    55.3111     6462
    55.6131     8112
    55.9151     9605
    56.2171     6881
    56.5191     7805
    56.8211     8327
    57.1231     6480
    57.4250     6306
    57.7270     7824
    58.0290     8051
    58.3310     6352
    58.6330     7816
    58.9350    10716
    59.2370     9795
    59.5390     6342
    59.8410     6558
    60.1430     7898
    60.4450     6545
    60.7470     7899
    61.0490     6615
    61.3510     9645
    61.6530     7441
    61.9550     6256
    62.2570     6107
    62.5590     6117
    62.8610     6102
    63.1630     6338
    63.4650     7701
    63.7670     6369
    64.0690     6087
    64.3710     7161
    64.6730     5955
    64.9750     6086
    65.2770     5974
    65.5790     5919
    65.8810     5944
    66.1829     6081
    66.4849     6127
    66.7869     5953
    67.0889     5953
    67.3909     6097
    67.6929     6078
    67.9949     5823
    68.2969     6012
    68.5989     6080
    68.9009     7124
    69.2029     7627
    69.5049     7728
    69.8069     6948
    70.1089     6507
    70.4109     6169
    70.7129     6816
    71.0149     6185
    71.3169     5965
    71.6189     6407
    71.9209     8442
    72.2229     6541
    72.5249     6240
    72.8269     6405
    73.1289     6180
    73.4309     6410
    73.7329     5983
    74.0349     6500
    74.3369     6883
    74.6388     6255
    74.9408     5875
    75.2428     6075
    75.5448     5821
    75.8468     6241
    76.1488     5855
    76.4508     6318
    76.7528     7218
    77.0548     6441
    77.3568     6168
    77.6588     6139
    77.9608     5805
    78.2628     5955
    78.5648     6034
    78.8668     6315
    79.1688     6765
    79.4708     6286
    79.7728     6525
    80.0748     6277
    80.3768     5942
    80.6788     6754
    80.9808     6248
    81.2828     6321
    81.5848     6269
    81.8868     5979
    82.1888     6256
    82.4908     6404
    82.7928     6046
    83.0947     6175
    83.3967     5924
    83.6987     6062
    84.0007     5871
    84.3027     5909
    84.6047     6200
    84.9067     6091
    85.2087     5836
    85.5107     6073
    85.8127     5946
    86.1147     5881
    86.4167     6083
    86.7187     6359
    87.0207     6673
    87.3227     6226
    87.6247     6008
    87.9267     6297
    88.2287     6061
    88.5307     6022
    88.8327     6356
    89.1347     6482
    89.4367     6852
    89.7387     6751
    90.0407     6048
    90.3427     5920
    90.6447     5963
    90.9467     5761
    91.2487     6104
    91.5507     6124
    91.8526     6573
    92.1546     6588
    92.4566     5951
    92.7586     5938
    93.0606     5831
    93.3626     5871
    93.6646     6092
    93.9666     6004
    94.2686     5869
    94.5706     6182
    94.8726     6184
    95.1746     6149
    95.4766     6061
    95.7786     6393
    96.0806     5972
    96.3826     5840
    96.6846     5847
    96.9866     6021
    97.2886     6032
    97.5906     6249
    97.8926     5742
    98.1946     5869
    98.4966     6144
    98.7986     5861
    99.1006     5866
    99.4026     5623
    99.7046     5766
    99.9934     5784

File: 250°C.XY
! Initial file:   D:\ZAKARY_OUAIL\MA_THESE\Deuxième_année_de_thèse\DRX\Affinement_DRX\Fullprof\Thermodiff3-nuit_NaNbO2F2\250°C\NaNbO2F2-Lent_250°C.xrdml
! Initial format:  58
! WAVE (A):      1.54060     1.54060     1.00000
! REM : data have been multiplied by     1.0000
! X_data : 2 Theta (deg.)
! Y_data : Intensity (arb. units)
!     X         Y
!--------------------------------------------------------------------------------
    10.0116     7409
    10.3136     7706
    10.6156     7515
    10.9176     8215
    11.2196    56892
    11.5216     7623
    11.8236     7954
    12.1256     8011
    12.4276     8192
    12.7296     7772
    13.0316     7865
    13.3336     7695
    13.6356     7913
    13.9376     7878
    14.2395     7775
    14.5415     9592
    14.8435     7728
    15.1455     7635
    15.4475     7706
    15.7495     7798
    16.0515     7644
    16.3535     7586
    16.6555     7484
    16.9575     7472
    17.2595     7529
    17.5615     7396
    17.8635     7491
    18.1655     7265
    18.4675     7330
    18.7695     7079
    19.0715     7210
    19.3735     7604
    19.6755     9727
    19.9775     9539
    20.2795     7602
    20.5815     7570
    20.8835     7320
    21.1855     7334
    21.4875     7376
    21.7895     7465
    22.0915     7482
    22.3935     7693
    22.6954    10309
    22.9974     7293
    23.2994     7406
    23.6014     7749
    23.9034    14086
    24.2054    11901
    24.5074     7361
    24.8094     7420
    25.1114     7365
    25.4134     7221
    25.7154     7341
    26.0174     7315
    26.3194     7352
    26.6214     7136
    26.9234     7193
    27.2254     7522
    27.5274     7595
    27.8294    10920
    28.1314    11184
    28.4334     7774
    28.7354     7560
    29.0374    25907
    29.3394    12718
    29.6414     7162
    29.9434     7035
    30.2454     7013
    30.5474     6957
    30.8494     7156
    31.1514     6717
    31.4533     6874
    31.7553     6842
    32.0573     6834
    32.3593     6912
    32.6613     7107
    32.9633    14827
    33.2653     7217
    33.5673     8112
    33.8693     7004
    34.1713    13367
    34.4733     6694
    34.7753     7737
    35.0773     7357
    35.3793     6553
    35.6813     6561
    35.9833     6484
    36.2853     6596
    36.5873     8470
    36.8893     6497
    37.1913     6465
    37.4933     7199
    37.7953     8200
    38.0973     6525
    38.3993     6674
    38.7013     6480
    39.0033     6604
    39.3053     7596
    39.6073     6456
    39.9092     6527
    40.2112     8558
    40.5132     6449
    40.8152     6484
    41.1172    11109
    41.4192     6534
    41.7212     6415
    42.0232     6495
    42.3252     6611
    42.6272     6284
    42.9292     6345
    43.2312     6328
    43.5332     7325
    43.8352     6532
    44.1372     6483
    44.4392     6865
    44.7412     7613
    45.0432     6311
    45.3452     6391
    45.6472     6500
    45.9492     6819
    46.2512    11571
    46.5532     6568
    46.8552     6389
    47.1572     6515
    47.4592     8027
    47.7612     7169
    48.0632    10523
    48.3652     7477
    48.6671     6996
    48.9691     7229
    49.2711    10739
    49.5731     7033
    49.8751    12781
    50.1771     7251
    50.4791     7431
    50.7811     8127
    51.0831     6483
    51.3851     6550
    51.6871    14281
    51.9891     6731
    52.2911     6522
    52.5931     6455
    52.8951     6644
    53.1971     6339
    53.4991     6181
    53.8011     6460
    54.1031     6224
    54.4051     6351
    54.7071     6329
    55.0091     6265
    55.3111     6480
    55.6131     8259
    55.9151     9013
    56.2171     7001
    56.5191     7643
    56.8211     7903
    57.1231     6408
    57.4250     6414
    57.7270     8301
    58.0290     7967
    58.3310     6187
    58.6330     7463
    58.9350    10161
    59.2370     8591
    59.5390     6195
    59.8410     6604
    60.1430     8387
    60.4450     6583
    60.7470     7531
    61.0490     6833
    61.3510     9382
    61.6530     7591
    61.9550     6392
    62.2570     6148
    62.5590     6102
    62.8610     6233
    63.1630     6535
    63.4650     7682
    63.7670     6328
    64.0690     6051
    64.3710     6527
    64.6730     6168
    64.9750     6087
    65.2770     6093
    65.5790     6125
    65.8810     5910
    66.1829     6129
    66.4849     6234
    66.7869     5940
    67.0889     5773
    67.3909     6128
    67.6929     6167
    67.9949     6114
    68.2969     6035
    68.5989     6114
    68.9009     7102
    69.2029     7605
    69.5049     7804
    69.8069     6956
    70.1089     6506
    70.4109     6244
    70.7129     6725
    71.0149     6101
    71.3169     5870
    71.6189     6344
    71.9209     8489
    72.2229     6370
    72.5249     6180
    72.8269     6179
    73.1289     6429
    73.4309     6542
    73.7329     6080
    74.0349     6756
    74.3369     7000
    74.6388     6038
    74.9408     5939
    75.2428     5953
    75.5448     5754
    75.8468     6091
    76.1488     5768
    76.4508     6220
    76.7528     6951
    77.0548     6306
    77.3568     6061
    77.6588     6189
    77.9608     5868
    78.2628     5950
    78.5648     6089
    78.8668     6429
    79.1688     6660
    79.4708     6190
    79.7728     6448
    80.0748     6254
    80.3768     6141
    80.6788     6769
    80.9808     6309
    81.2828     6308
    81.5848     6380
    81.8868     5992
    82.1888     6361
    82.4908     6329
    82.7928     6060
    83.0947     6023
    83.3967     6000
    83.6987     5796
    84.0007     5876
    84.3027     5914
    84.6047     6302
    84.9067     5902
    85.2087     5952
    85.5107     5767
    85.8127     6036
    86.1147     5871
    86.4167     6081
    86.7187     6574
    87.0207     6776
    87.3227     6028
    87.6247     5926
    87.9267     6325
    88.2287     6235
    88.5307     5917
    88.8327     6391
    89.1347     6355
    89.4367     6724
    89.7387     6669
    90.0407     6162
    90.3427     5657
    90.6447     5819
    90.9467     5803
    91.2487     5966
    91.5507     6282
    91.8526     6499
    92.1546     6734
    92.4566     6227
    92.7586     5817
    93.0606     5814
    93.3626     5837
    93.6646     6423
    93.9666     6121
    94.2686     5843
    94.5706     6406
    94.8726     6308
    95.1746     6033
    95.4766     5933
    95.7786     6061
    96.0806     5842
    96.3826     5597
    96.6846     5866
    96.9866     6017
    97.2886     6154
    97.5906     6077
    97.8926     5869
    98.1946     6039
    98.4966     6000
    98.7986     5937
    99.1006     5815
    99.4026     5853
    99.7046     5680
    99.9934     5770