Folder: data-NaMO2F2/powder_X-ray_diffraction/variable-temperature_experiments/NaNbO2F2/raw_data

Note: powder_X-ray_diffraction/README.md
# Powder X-Ray Diffraction Data for NaMO<sub>2</sub>F<sub>2</sub> (M = Nb<sup>5+</sup>, Ta<sup>5+</sup>)

**Author:** Ouail Zakary  
**ORCID:** [0000-0002-7793-3306](https://orcid.org/0000-0002-7793-3306)  
**E-mail:** [Ouail.Zakary@oulu.fi](mailto:Ouail.Zakary@oulu.fi)  
**Website:** [Ouail Zakary - webpage](https://cc.oulu.fi/~nmrwww/members/Ouail_Zakary.html)

This repository contains datasets of **Powder X-Ray Diffraction (PXRD)** data for the compounds NaNbO<sub>2</sub>F<sub>2</sub> and NaTaO<sub>2</sub>F<sub>2</sub>, recorded under both room temperature (RT) and variable temperature conditions.

## Overview of the Data

The dataset is organized into two main families of experiments:

1. **Room Temperature PXRD Data:**  
   **Folder:** `./room_temperature_experiments`
   - **NaNbO<sub>2</sub>F<sub>2</sub> Data:**  
     - [Raw Data](./room_temperature_experiments/NaNbO2F2/raw_data/)
     - [Rietveld Refinement Data](./room_temperature_experiments/NaNbO2F2/Rietveld_refinement/)
   - **NaTaO<sub>2</sub>F<sub>2</sub> Data:**  
     - [Raw Data](./room_temperature_experiments/NaTaO2F2/raw_data/)
     - [Rietveld Refinement Data](./room_temperature_experiments/NaTaO2F2/Rietveld_refinement/)

2. **Variable Temperature PXRD Data:**  
   **Folder:** `./variable-temperature_experiments`
   - **NaNbO<sub>2</sub>F<sub>2</sub> Data:**  
     - [Raw Data](./variable-temperature_experiments/NaNbO2F2/raw_data/)
     - [Rietveld Refinement Data](./variable-temperature_experiments/NaNbO2F2/Rietveld_refinement/)
   - **NaTaO<sub>2</sub>F<sub>2</sub> Data:**  
     - [Raw Data](./variable-temperature_experiments/NaTaO2F2/raw_data/)
     - [Rietveld Refinement Data](./variable-temperature_experiments/NaTaO2F2/Rietveld_refinement/)

## Methods

### PXRD Data Collection

Both RT and temperature-controlled PXRD patterns were recorded using a **PANalytical θ/θ Bragg–Brentano EMPYREAN** diffractometer (CuKα<sub>1+2</sub> radiations) equipped with a **PIXcel1D detector**. The collection methods are as follows:

- **Room Temperature PXRD Patterns:**  
  - **2θ Range:** 5° to 135°  
  - **Step Size:** 0.0131°  
  - **Total Acquisition Time:** Approximately 7h 30m  
  - **Sample Preparation:** Raw powders were dusted through a 63 μm sieve on a glass holder to minimize preferential grain orientation.

- **Temperature-Controlled PXRD Patterns:**  
  - **Temperature Range:** RT to 300°C using a **HTK 900 Anton Paar furnace attachment**  
  - **Sample Holder:** Glass ceramic Macor  
  - **Data Collection Intervals:** 20°C (25–220°C) and 10°C (220–300°C) increments with a heating rate of 5°C/min  
  - **Temperature Stabilization:** 20 minutes before each measurement  
  - **2θ Range:** 10° to 100°  
  - **Step Size:** 0.0131°  
  - **Total Acquisition Time:** 3 hours for each pattern.

### Rietveld Refinement

The **Rietveld refinement method** was employed for both the RT and temperature-controlled PXRD data using the **FullProf** software.

## Directory Structure

The foll

File: 25°C.XY
! Initial file:   D:\ZAKARY_OUAIL\MA_THESE\Deuxième_année_de_thèse\DRX\Affinement_DRX\Fullprof\Thermodiff3-nuit_NaNbO2F2\25°C\NaNbO2F2-Lent_25°C.xrdml
! Initial format:  58
! WAVE (A):      1.54060     1.54060     1.00000
! REM : data have been multiplied by     1.0000
! X_data : 2 Theta (deg.)
! Y_data : Intensity (arb. units)
!     X         Y
!--------------------------------------------------------------------------------
    10.0116     8374
    10.3136     8352
    10.6156     8366
    10.9176     8629
    11.2196    29291
    11.5216     8493
    11.8236     8731
    12.1256     8571
    12.4276     8647
    12.7296     8624
    13.0316     8352
    13.3336     8302
    13.6356     8573
    13.9376     8235
    14.2395     8345
    14.5415     9813
    14.8435     8270
    15.1455     8083
    15.4475     7896
    15.7495     7980
    16.0515     7851
    16.3535     8046
    16.6555     7894
    16.9575     7611
    17.2595     7828
    17.5615     7805
    17.8635     7393
    18.1655     7719
    18.4675     7553
    18.7695     7508
    19.0715     7330
    19.3735     7841
    19.6755     8523
    19.9775    56765
    20.2795     8038
    20.5815     7741
    20.8835     7826
    21.1855     7499
    21.4875     7827
    21.7895     7530
    22.0915     7448
    22.3935     7679
    22.6954    32013
    22.9974     7562
    23.2994     7802
    23.6014     7797
    23.9034    16444
    24.2054    31069
    24.5074     7762
    24.8094     7460
    25.1114     7490
    25.4134     7451
    25.7154     7491
    26.0174     7447
    26.3194     7242
    26.6214     7274
    26.9234     7071
    27.2254     7454
    27.5274     7440
    27.8294     8463
    28.1314    73780
    28.4334     8208
    28.7354     7881
    29.0374    40525
    29.3394    13488
    29.6414     7359
    29.9434     7098
    30.2454     6977
    30.5474     7074
    30.8494     6980
    31.1514     6814
    31.4533     6876
    31.7553     6829
    32.0573     6929
    32.3593     6836
    32.6613     6894
    32.9633     7940
    33.2653     7626
    33.5673     6892
    33.8693    14995
    34.1713     7226
    34.4733     7203
    34.7753     6706
    35.0773    11602
    35.3793     6937
    35.6813     6590
    35.9833     6699
    36.2853     6564
    36.5873     8419
    36.8893     6582
    37.1913     6245
    37.4933     6604
    37.7953     7748
    38.0973     7198
    38.3993     6557
    38.7013     6550
    39.0033     6630
    39.3053     8414
    39.6073     6462
    39.9092     6550
    40.2112     6895
    40.5132     8997
    40.8152     6462
    41.1172     6687
    41.4192    12108
    41.7212     6437
    42.0232     6645
    42.3252     6385
    42.6272     6331
    42.9292     6362
    43.2312     6340
    43.5332     6393
    43.8352     6969
    44.1372     6402
    44.4392     6551
    44.7412     6899
    45.0432     8264
    45.3452     6345
    45.6472     6206
    45.9492     6421
    46.2512     8486
    46.5532     7295
    46.8552     6377
    47.1572     6273
    47.4592     6416
    47.7612    10602
    48.0632     6634
    48.3652    10974
    48.6671     7668
    48.9691     7254
    49.2711     7057
    49.5731    14011
    49.8751     6964
    50.1771    11467
    50.4791     6530
    50.7811     8270
    51.0831     8428
    51.3851     6414
    51.6871     6727
    51.9891     9294
    52.2911     7019
    52.5931     6365
    52.8951     6512
    53.1971     6415
    53.4991     6408
    53.8011     6263
    54.1031     6303
    54.4051     6126
    54.7071     6186
    55.0091     6230
    55.3111     6281
    55.6131     7108
    55.9151     6691
    56.2171     8886
    56.5191     6538
    56.8211     8179
    57.1231     8276
    57.4250     6627
    57.7270     6400
    58.0290     8095
    58.3310     8202
    58.6330     6250
    58.9350     7226
    59.2370     9085
    59.5390     8790
    59.8410     7414
    60.1430    10585
    60.4450     6615
    60.7470     6197
    61.0490     7581
    61.3510     6417
    61.6530    11478
    61.9550     6982
    62.2570     6027
    62.5590     6009
    62.8610     5861
    63.1630     5956
    63.4650     6116
    63.7670     7480
    64.0690     6149
    64.3710     5994
    64.6730     6163
    64.9750     6646
    65.2770     6026
    65.5790     6046
    65.8810     6014
    66.1829     5937
    66.4849     6132
    66.7869     6172
    67.0889     5777
    67.3909     5963
    67.6929     6007
    67.9949     5946
    68.2969     5939
    68.5989     6139
    68.9009     5901
    69.2029     6082
    69.5049     7700
    69.8069     6603
    70.1089     7319
    70.4109     5905
    70.7129     6166
    71.0149     6648
    71.3169     6281
    71.6189     5991
    71.9209     6039
    72.2229     6837
    72.5249     7137
    72.8269     5940
    73.1289     6268
    73.4309     6053
    73.7329     6331
    74.0349     6575
    74.3369     6290
    74.6388     6932
    74.9408     6734
    75.2428     6032
    75.5448     5948
    75.8468     5795
    76.1488     5933
    76.4508     5898
    76.7528     6070
    77.0548     6216
    77.3568     7332
    77.6588     6535
    77.9608     6270
    78.2628     5822
    78.5648     5913
    78.8668     5854
    79.1688     6117
    79.4708     6238
    79.7728     6419
    80.0748     6922
    80.3768     6066
    80.6788     6205
    80.9808     5970
    81.2828     6422
    81.5848     6475
    81.8868     6958
    82.1888     6306
    82.4908     5900
    82.7928     5982
    83.0947     6211
    83.3967     6223
    83.6987     5863
    84.0007     5905
    84.3027     5738
    84.6047     5865
    84.9067     5898
    85.2087     6416
    85.5107     6283
    85.8127     5934
    86.1147     5680
    86.4167     5778
    86.7187     5687
    87.0207     6657
    87.3227     6935
    87.6247     6759
    87.9267     6243
    88.2287     6027
    88.5307     6165
    88.8327     6204
    89.1347     6217
    89.4367     6172
    89.7387     6065
    90.0407     6799
    90.3427     6019
    90.6447     5756
    90.9467     5722
    91.2487     5738
    91.5507     5712
    91.8526     5982
    92.1546     6009
    92.4566     6313
    92.7586     6486
    93.0606     6103
    93.3626     5823
    93.6646     5791
    93.9666     5936
    94.2686     5931
    94.5706     6287
    94.8726     6054
    95.1746     5841
    95.4766     6219
    95.7786     6559
    96.0806     6118
    96.3826     6258
    96.6846     5920
    96.9866     5566
    97.2886     5668
    97.5906     5996
    97.8926     6045
    98.1946     6169
    98.4966     5644
    98.7986     5839
    99.1006     5792
    99.4026     5932
    99.7046     5774
    99.9934     5708

File: 80°C.XY
! Initial file:   D:\ZAKARY_OUAIL\MA_THESE\Deuxième_année_de_thèse\DRX\Affinement_DRX\Fullprof\Thermodiff3-nuit_NaNbO2F2\80°C\NaNbO2F2-Lent_80°C.xrdml
! Initial format:  58
! WAVE (A):      1.54060     1.54060     1.00000
! REM : data have been multiplied by     1.0000
! X_data : 2 Theta (deg.)
! Y_data : Intensity (arb. units)
!     X         Y
!--------------------------------------------------------------------------------
    10.0116     7951
    10.3136     8119
    10.6156     8103
    10.9176     8473
    11.2196    35128
    11.5216     8087
    11.8236     8334
    12.1256     8567
    12.4276     8490
    12.7296     8493
    13.0316     8219
    13.3336     8196
    13.6356     8262
    13.9376     8215
    14.2395     8106
    14.5415     9843
    14.8435     8053
    15.1455     8026
    15.4475     7868
    15.7495     7922
    16.0515     7995
    16.3535     8023
    16.6555     7980
    16.9575     7924
    17.2595     7447
    17.5615     7530
    17.8635     7525
    18.1655     7308
    18.4675     7319
    18.7695     7322
    19.0715     7361
    19.3735     7824
    19.6755     8704
    19.9775    34904
    20.2795     8016
    20.5815     7683
    20.8835     7570
    21.1855     7576
    21.4875     7587
    21.7895     7481
    22.0915     7658
    22.3935     7755
    22.6954    26708
    22.9974     7693
    23.2994     7684
    23.6014     7768
    23.9034    16317
    24.2054    27635
    24.5074     7581
    24.8094     7399
    25.1114     7384
    25.4134     7411
    25.7154     7417
    26.0174     7387
    26.3194     7319
    26.6214     7221
    26.9234     7071
    27.2254     7402
    27.5274     7558
    27.8294     8511
    28.1314    57594
    28.4334     7821
    28.7354     7689
    29.0374    38780
    29.3394    14275
    29.6414     7389
    29.9434     7038
    30.2454     7029
    30.5474     7046
    30.8494     7031
    31.1514     6901
    31.4533     6847
    31.7553     6935
    32.0573     6756
    32.3593     6771
    32.6613     6622
    32.9633     8615
    33.2653     7651
    33.5673     6961
    33.8693    11662
    34.1713     7284
    34.4733     6906
    34.7753     6803
    35.0773     9600
    35.3793     6780
    35.6813     6503
    35.9833     6471
    36.2853     6748
    36.5873     8418
    36.8893     6681
    37.1913     6633
    37.4933     6539
    37.7953    10583
    38.0973     6788
    38.3993     6587
    38.7013     6553
    39.0033     6590
    39.3053     9902
    39.6073     6516
    39.9092     6403
    40.2112     7068
    40.5132     7910
    40.8152     6503
    41.1172     7522
    41.4192     9767
    41.7212     6368
    42.0232     6373
    42.3252     6415
    42.6272     6378
    42.9292     6232
    43.2312     6426
    43.5332     6373
    43.8352     7076
    44.1372     6434
    44.4392     6379
    44.7412     8605
    45.0432     6658
    45.3452     6347
    45.6472     6275
    45.9492     6658
    46.2512    18266
    46.5532     6610
    46.8552     6567
    47.1572     6568
    47.4592     6715
    47.7612    10157
    48.0632     6804
    48.3652    17916
    48.6671     6857
    48.9691     7052
    49.2711     7477
    49.5731    10527
    49.8751     7018
    50.1771    13385
    50.4791     6567
    50.7811     7804
    51.0831     7764
    51.3851     6445
    51.6871     7038
    51.9891     8147
    52.2911     6363
    52.5931     6451
    52.8951     6707
    53.1971     6075
    53.4991     6266
    53.8011     6470
    54.1031     6360
    54.4051     6367
    54.7071     6155
    55.0091     6364
    55.3111     6379
    55.6131     6984
    55.9151     7638
    56.2171     8534
    56.5191     7573
    56.8211     7578
    57.1231     7340
    57.4250     6541
    57.7270     6592
    58.0290    10960
    58.3310     6799
    58.6330     6438
    58.9350     7482
    59.2370    11985
    59.5390     9659
    59.8410     6609
    60.1430    12480
    60.4450     6421
    60.7470     7002
    61.0490     6952
    61.3510     6745
    61.6530    10453
    61.9550     6517
    62.2570     6186
    62.5590     5996
    62.8610     6136
    63.1630     6126
    63.4650     6238
    63.7670     7400
    64.0690     6271
    64.3710     6064
    64.6730     7104
    64.9750     6123
    65.2770     6018
    65.5790     6082
    65.8810     5980
    66.1829     5820
    66.4849     5880
    66.7869     5947
    67.0889     5916
    67.3909     6024
    67.6929     5939
    67.9949     5987
    68.2969     5929
    68.5989     5946
    68.9009     6076
    69.2029     6496
    69.5049     7450
    69.8069     7858
    70.1089     7021
    70.4109     6011
    70.7129     6230
    71.0149     6457
    71.3169     6024
    71.6189     6206
    71.9209     6297
    72.2229     8543
    72.5249     6541
    72.8269     6512
    73.1289     6067
    73.4309     6010
    73.7329     7387
    74.0349     6512
    74.3369     6138
    74.6388     8044
    74.9408     6213
    75.2428     5892
    75.5448     5877
    75.8468     5844
    76.1488     5946
    76.4508     5923
    76.7528     6115
    77.0548     7390
    77.3568     6730
    77.6588     6123
    77.9608     5749
    78.2628     5854
    78.5648     5804
    78.8668     6107
    79.1688     6074
    79.4708     6981
    79.7728     6378
    80.0748     6388
    80.3768     6091
    80.6788     6132
    80.9808     6787
    81.2828     6707
    81.5848     6405
    81.8868     6185
    82.1888     5869
    82.4908     5986
    82.7928     6444
    83.0947     6422
    83.3967     6198
    83.6987     5833
    84.0007     5759
    84.3027     5660
    84.6047     5896
    84.9067     5830
    85.2087     5974
    85.5107     5964
    85.8127     5894
    86.1147     5904
    86.4167     5781
    86.7187     5773
    87.0207     6156
    87.3227     6163
    87.6247     6262
    87.9267     6032
    88.2287     5901
    88.5307     6591
    88.8327     6666
    89.1347     6432
    89.4367     6055
    89.7387     6240
    90.0407     6299
    90.3427     5851
    90.6447     5628
    90.9467     5774
    91.2487     5636
    91.5507     5894
    91.8526     6081
    92.1546     6431
    92.4566     6917
    92.7586     6509
    93.0606     5941
    93.3626     5943
    93.6646     5717
    93.9666     5685
    94.2686     6431
    94.5706     5967
    94.8726     5905
    95.1746     6357
    95.4766     6198
    95.7786     6320
    96.0806     6155
    96.3826     5799
    96.6846     5830
    96.9866     5834
    97.2886     5878
    97.5906     6296
    97.8926     5866
    98.1946     5622
    98.4966     5689
    98.7986     5970
    99.1006     5906
    99.4026     5843
    99.7046     5719
    99.9934     5796

File: 100°C.XY
! Initial file:   D:\ZAKARY_OUAIL\MA_THESE\Deuxième_année_de_thèse\DRX\Affinement_DRX\Fullprof\Thermodiff3-nuit_NaNbO2F2\100°C\NaNbO2F2-Lent_100°C - Copie.xrdml
! Initial format:  58
! WAVE (A):      1.54060     1.54060     1.00000
! REM : data have been multiplied by     1.0000
! X_data : 2 Theta (deg.)
! Y_data : Intensity (arb. units)
!     X         Y
!--------------------------------------------------------------------------------
    10.0116     7952
    10.3136     8152
    10.6156     7961
    10.9176     8343
    11.2196    37506
    11.5216     8219
    11.8236     8083
    12.1256     8488
    12.4276     8265
    12.7296     8222
    13.0316     8195
    13.3336     8217
    13.6356     8133
    13.9376     7972
    14.2395     8097
    14.5415     9536
    14.8435     8055
    15.1455     7878
    15.4475     7796
    15.7495     7849
    16.0515     8032
    16.3535     7750
    16.6555     7798
    16.9575     7731
    17.2595     7662
    17.5615     7668
    17.8635     7458
    18.1655     7420
    18.4675     7212
    18.7695     7228
    19.0715     7348
    19.3735     7723
    19.6755     8460
    19.9775    27591
    20.2795     7771
    20.5815     7408
    20.8835     7598
    21.1855     7477
    21.4875     7472
    21.7895     7603
    22.0915     7385
    22.3935     7489
    22.6954    24764
    22.9974     7551
    23.2994     7560
    23.6014     7678
    23.9034    16338
    24.2054    27203
    24.5074     7786
    24.8094     7435
    25.1114     7463
    25.4134     7367
    25.7154     7363
    26.0174     7818
    26.3194     7260
    26.6214     7204
    26.9234     7090
    27.2254     7318
    27.5274     7488
    27.8294     8796
    28.1314    50529
    28.4334     7766
    28.7354     7642
    29.0374    36023
    29.3394    15376
    29.6414     7253
    29.9434     7036
    30.2454     7095
    30.5474     6987
    30.8494     6740
    31.1514     6788
    31.4533     6883
    31.7553     6772
    32.0573     7020
    32.3593     6910
    32.6613     6954
    32.9633     9641
    33.2653     7223
    33.5673     6907
    33.8693    11375
    34.1713     7360
    34.4733     6797
    34.7753     6780
    35.0773     9504
    35.3793     6844
    35.6813     6519
    35.9833     6438
    36.2853     6743
    36.5873     8428
    36.8893     6378
    37.1913     6549
    37.4933     6616
    37.7953    12156
    38.0973     6662
    38.3993     6481
    38.7013     6522
    39.0033     6570
    39.3053     9160
    39.6073     6429
    39.9092     6598
    40.2112     7251
    40.5132     8157
    40.8152     6508
    41.1172     7978
    41.4192     9099
    41.7212     6439
    42.0232     6369
    42.3252     6473
    42.6272     6400
    42.9292     6387
    43.2312     6309
    43.5332     6534
    43.8352     7046
    44.1372     6273
    44.4392     6263
    44.7412    10970
    45.0432     6461
    45.3452     6335
    45.6472     6458
    45.9492     6508
    46.2512    19920
    46.5532     6700
    46.8552     6171
    47.1572     6269
    47.4592     6694
    47.7612    10768
    48.0632     6969
    48.3652    15146
    48.6671     6793
    48.9691     7147
    49.2711     8045
    49.5731     9107
    49.8751     7098
    50.1771    13215
    50.4791     6607
    50.7811     7530
    51.0831     7687
    51.3851     6404
    51.6871     7098
    51.9891     8295
    52.2911     6217
    52.5931     6461
    52.8951     6199
    53.1971     6169
    53.4991     6399
    53.8011     6257
    54.1031     6475
    54.4051     6183
    54.7071     6329
    55.0091     6340
    55.3111     6473
    55.6131     6889
    55.9151     8538
    56.2171     7786
    56.5191     8617
    56.8211     8510
    57.1231     7203
    57.4250     6418
    57.7270     6410
    58.0290    10879
    58.3310     6605
    58.6330     6254
    58.9350     7808
    59.2370    10327
    59.5390     8139
    59.8410     6442
    60.1430    11346
    60.4450     6417
    60.7470     7611
    61.0490     6715
    61.3510     7135
    61.6530    10498
    61.9550     6564
    62.2570     6116
    62.5590     6045
    62.8610     5970
    63.1630     6089
    63.4650     6362
    63.7670     7504
    64.0690     6179
    64.3710     5994
    64.6730     6953
    64.9750     5984
    65.2770     6062
    65.5790     6099
    65.8810     6070
    66.1829     5763
    66.4849     5860
    66.7869     6104
    67.0889     5812
    67.3909     6192
    67.6929     6009
    67.9949     6003
    68.2969     5987
    68.5989     5767
    68.9009     5969
    69.2029     6635
    69.5049     7533
    69.8069     7757
    70.1089     6617
    70.4109     5935
    70.7129     5997
    71.0149     6329
    71.3169     6175
    71.6189     6057
    71.9209     6483
    72.2229     8299
    72.5249     6196
    72.8269     6639
    73.1289     5933
    73.4309     5941
    73.7329     6764
    74.0349     6005
    74.3369     6131
    74.6388     7384
    74.9408     6165
    75.2428     5862
    75.5448     5941
    75.8468     5997
    76.1488     6051
    76.4508     5931
    76.7528     6134
    77.0548     8117
    77.3568     6728
    77.6588     6242
    77.9608     5952
    78.2628     5758
    78.5648     6002
    78.8668     6054
    79.1688     6147
    79.4708     6567
    79.7728     6454
    80.0748     6375
    80.3768     6115
    80.6788     6158
    80.9808     6792
    81.2828     6545
    81.5848     6627
    81.8868     6221
    82.1888     5868
    82.4908     6055
    82.7928     6276
    83.0947     6347
    83.3967     6317
    83.6987     5827
    84.0007     5715
    84.3027     5776
    84.6047     5723
    84.9067     6164
    85.2087     5996
    85.5107     5836
    85.8127     5837
    86.1147     5859
    86.4167     5893
    86.7187     6086
    87.0207     6295
    87.3227     6241
    87.6247     6072
    87.9267     5966
    88.2287     6121
    88.5307     6162
    88.8327     6404
    89.1347     6522
    89.4367     6244
    89.7387     6395
    90.0407     6069
    90.3427     5848
    90.6447     5697
    90.9467     5811
    91.2487     5775
    91.5507     5914
    91.8526     6015
    92.1546     6116
    92.4566     7081
    92.7586     6401
    93.0606     5723
    93.3626     5794
    93.6646     5660
    93.9666     5692
    94.2686     6310
    94.5706     6158
    94.8726     5814
    95.1746     6256
    95.4766     6544
    95.7786     5992
    96.0806     6383
    96.3826     5925
    96.6846     5878
    96.9866     5574
    97.2886     6062
    97.5906     6221
    97.8926     5989
    98.1946     5780
    98.4966     5614
    98.7986     6046
    99.1006     6134
    99.4026     5877
    99.7046     5678
    99.9934     5544