Folder: data-NaMO2F2/powder_X-ray_diffraction/variable-temperature_experiments/NaNbO2F2/raw_data (part 4)

File: 270°C.XY
! Initial file:   D:\ZAKARY_OUAIL\MA_THESE\Deuxième_année_de_thèse\DRX\Affinement_DRX\Fullprof\Thermodiff3-nuit_NaNbO2F2\270°C\NaNbO2F2-Lent_270°C.xrdml
! Initial format:  58
! WAVE (A):      1.54060     1.54060     1.00000
! REM : data have been multiplied by     1.0000
! X_data : 2 Theta (deg.)
! Y_data : Intensity (arb. units)
!     X         Y
!--------------------------------------------------------------------------------
    10.0116     7473
    10.3136     7470
    10.6156     7498
    10.9176     7965
    11.2196    61934
    11.5216     7676
    11.8236     7991
    12.1256     7907
    12.4276     7951
    12.7296     8071
    13.0316     8087
    13.3336     7904
    13.6356     7901
    13.9376     7734
    14.2395     7730
    14.5415     9489
    14.8435     7752
    15.1455     7638
    15.4475     7552
    15.7495     7499
    16.0515     7644
    16.3535     7572
    16.6555     7369
    16.9575     7508
    17.2595     7442
    17.5615     7198
    17.8635     7557
    18.1655     7267
    18.4675     7134
    18.7695     7193
    19.0715     7241
    19.3735     7515
    19.6755    10076
    19.9775     9417
    20.2795     7383
    20.5815     7398
    20.8835     7433
    21.1855     7220
    21.4875     7534
    21.7895     7496
    22.0915     7391
    22.3935     7686
    22.6954     8899
    22.9974     7395
    23.2994     7554
    23.6014     7805
    23.9034    14007
    24.2054    10468
    24.5074     7471
    24.8094     7362
    25.1114     7207
    25.4134     7127
    25.7154     7197
    26.0174     7533
    26.3194     7228
    26.6214     7132
    26.9234     7262
    27.2254     7486
    27.5274     7302
    27.8294    12109
    28.1314    10604
    28.4334     7963
    28.7354     7656
    29.0374    25142
    29.3394    11426
    29.6414     6922
    29.9434     7034
    30.2454     6888
    30.5474     7020
    30.8494     6770
    31.1514     6937
    31.4533     6963
    31.7553     6779
    32.0573     6881
    32.3593     6951
    32.6613     7047
    32.9633    14011
    33.2653     7195
    33.5673     9691
    33.8693     6962
    34.1713    11094
    34.4733     6652
    34.7753     8866
    35.0773     7155
    35.3793     6553
    35.6813     6428
    35.9833     6608
    36.2853     6507
    36.5873     8381
    36.8893     6684
    37.1913     6584
    37.4933     7130
    37.7953     7975
    38.0973     6611
    38.3993     6683
    38.7013     6478
    39.0033     6535
    39.3053     7458
    39.6073     6506
    39.9092     6457
    40.2112     9841
    40.5132     6425
    40.8152     6643
    41.1172    11204
    41.4192     6631
    41.7212     6334
    42.0232     6520
    42.3252     6373
    42.6272     6322
    42.9292     6232
    43.2312     6596
    43.5332     7657
    43.8352     6491
    44.1372     6586
    44.4392     7317
    44.7412     6986
    45.0432     6343
    45.3452     6424
    45.6472     6327
    45.9492     7394
    46.2512     8652
    46.5532     6487
    46.8552     6497
    47.1572     6578
    47.4592     8329
    47.7612     7209
    48.0632    15464
    48.3652     6907
    48.6671     7090
    48.9691     7216
    49.2711    12031
    49.5731     6725
    49.8751    16640
    50.1771     6932
    50.4791     7144
    50.7811     7959
    51.0831     6486
    51.3851     6638
    51.6871    14936
    51.9891     6613
    52.2911     6296
    52.5931     6504
    52.8951     6597
    53.1971     6301
    53.4991     6315
    53.8011     6314
    54.1031     6261
    54.4051     6324
    54.7071     6203
    55.0091     6222
    55.3111     6496
    55.6131     8992
    55.9151     7347
    56.2171     7741
    56.5191     8187
    56.8211     7446
    57.1231     6306
    57.4250     6285
    57.7270     9391
    58.0290     7968
    58.3310     6244
    58.6330     7294
    58.9350     9129
    59.2370     7480
    59.5390     6339
    59.8410     6489
    60.1430     8998
    60.4450     7011
    60.7470     6957
    61.0490     7042
    61.3510     9943
    61.6530     7351
    61.9550     6173
    62.2570     6113
    62.5590     6237
    62.8610     6270
    63.1630     7375
    63.4650     7922
    63.7670     6351
    64.0690     6196
    64.3710     6488
    64.6730     6180
    64.9750     6052
    65.2770     5970
    65.5790     5988
    65.8810     5878
    66.1829     6126
    66.4849     6297
    66.7869     5972
    67.0889     5962
    67.3909     5989
    67.6929     5989
    67.9949     6046
    68.2969     6319
    68.5989     6183
    68.9009     7269
    69.2029     8170
    69.5049     7673
    69.8069     7107
    70.1089     6499
    70.4109     6237
    70.7129     6469
    71.0149     6170
    71.3169     5973
    71.6189     6486
    71.9209     7683
    72.2229     6194
    72.5249     6707
    72.8269     6225
    73.1289     6954
    73.4309     6601
    73.7329     6083
    74.0349     6599
    74.3369     6751
    74.6388     6021
    74.9408     5666
    75.2428     6028
    75.5448     5958
    75.8468     5981
    76.1488     6065
    76.4508     6477
    76.7528     6481
    77.0548     6231
    77.3568     6015
    77.6588     6142
    77.9608     5755
    78.2628     5710
    78.5648     6192
    78.8668     7018
    79.1688     6503
    79.4708     6420
    79.7728     6496
    80.0748     6363
    80.3768     5917
    80.6788     6733
    80.9808     6049
    81.2828     6868
    81.5848     6229
    81.8868     5928
    82.1888     6142
    82.4908     6166
    82.7928     6122
    83.0947     6119
    83.3967     5813
    83.6987     5795
    84.0007     5837
    84.3027     6208
    84.6047     6427
    84.9067     5854
    85.2087     6010
    85.5107     5789
    85.8127     5938
    86.1147     6066
    86.4167     6304
    86.7187     7308
    87.0207     6743
    87.3227     6011
    87.6247     6055
    87.9267     6466
    88.2287     6018
    88.5307     6304
    88.8327     6099
    89.1347     6416
    89.4367     6636
    89.7387     6993
    90.0407     6098
    90.3427     5848
    90.6447     5856
    90.9467     6016
    91.2487     5813
    91.5507     6198
    91.8526     6583
    92.1546     6669
    92.4566     6061
    92.7586     5973
    93.0606     5913
    93.3626     5888
    93.6646     6152
    93.9666     5881
    94.2686     6081
    94.5706     6130
    94.8726     6067
    95.1746     6157
    95.4766     6079
    95.7786     5999
    96.0806     5751
    96.3826     5889
    96.6846     5924
    96.9866     5869
    97.2886     6087
    97.5906     6064
    97.8926     5925
    98.1946     5938
    98.4966     5982
    98.7986     5867
    99.1006     5799
    99.4026     5819
    99.7046     5638
    99.9934     5939

File: 280°C.XY
! Initial file:   D:\ZAKARY_OUAIL\MA_THESE\Deuxième_année_de_thèse\DRX\Affinement_DRX\Fullprof\Thermodiff3-nuit_NaNbO2F2\280°C\NaNbO2F2-Lent_280°C.xrdml
! Initial format:  58
! WAVE (A):      1.54060     1.54060     1.00000
! REM : data have been multiplied by     1.0000
! X_data : 2 Theta (deg.)
! Y_data : Intensity (arb. units)
!     X         Y
!--------------------------------------------------------------------------------
    10.0116     7542
    10.3136     7605
    10.6156     7557
    10.9176     8203
    11.2196    64762
    11.5216     7689
    11.8236     8008
    12.1256     7983
    12.4276     8004
    12.7296     7900
    13.0316     7853
    13.3336     7723
    13.6356     7838
    13.9376     7799
    14.2395     7725
    14.5415     9570
    14.8435     7753
    15.1455     7671
    15.4475     7741
    15.7495     7702
    16.0515     7656
    16.3535     7403
    16.6555     7578
    16.9575     7337
    17.2595     7428
    17.5615     7408
    17.8635     7640
    18.1655     7394
    18.4675     7304
    18.7695     6992
    19.0715     7271
    19.3735     7624
    19.6755    10286
    19.9775     9423
    20.2795     7462
    20.5815     7451
    20.8835     7433
    21.1855     7377
    21.4875     7319
    21.7895     7451
    22.0915     7382
    22.3935     7707
    22.6954     8606
    22.9974     7424
    23.2994     7477
    23.6014     7790
    23.9034    14124
    24.2054     9729
    24.5074     7553
    24.8094     7413
    25.1114     7297
    25.4134     6981
    25.7154     7505
    26.0174     7413
    26.3194     7261
    26.6214     7216
    26.9234     7145
    27.2254     7307
    27.5274     7685
    27.8294    13053
    28.1314     9992
    28.4334     8030
    28.7354     7828
    29.0374    24230
    29.3394    11080
    29.6414     7152
    29.9434     7032
    30.2454     6880
    30.5474     7036
    30.8494     6778
    31.1514     6757
    31.4533     6696
    31.7553     6860
    32.0573     6969
    32.3593     6929
    32.6613     7026
    32.9633    13521
    33.2653     7174
    33.5673    11655
    33.8693     6878
    34.1713    10411
    34.4733     6796
    34.7753    10783
    35.0773     7085
    35.3793     6550
    35.6813     6578
    35.9833     6543
    36.2853     6704
    36.5873     8552
    36.8893     6714
    37.1913     6610
    37.4933     7291
    37.7953     7819
    38.0973     6704
    38.3993     6370
    38.7013     6477
    39.0033     6649
    39.3053     6942
    39.6073     6507
    39.9092     6514
    40.2112    10270
    40.5132     6440
    40.8152     6631
    41.1172    12253
    41.4192     6601
    41.7212     6466
    42.0232     6465
    42.3252     6233
    42.6272     6170
    42.9292     6236
    43.2312     6422
    43.5332     7393
    43.8352     6472
    44.1372     6718
    44.4392     7831
    44.7412     6830
    45.0432     6420
    45.3452     6432
    45.6472     6434
    45.9492     7323
    46.2512     7809
    46.5532     6413
    46.8552     6418
    47.1572     6455
    47.4592     8591
    47.7612     7155
    48.0632    20101
    48.3652     7002
    48.6671     7095
    48.9691     7202
    49.2711    13890
    49.5731     6848
    49.8751    19101
    50.1771     6996
    50.4791     7519
    50.7811     7540
    51.0831     6540
    51.3851     6483
    51.6871    15439
    51.9891     6594
    52.2911     6417
    52.5931     6380
    52.8951     6496
    53.1971     6502
    53.4991     6248
    53.8011     6571
    54.1031     6405
    54.4051     6401
    54.7071     6429
    55.0091     6356
    55.3111     6414
    55.6131    10722
    55.9151     7215
    56.2171     8811
    56.5191     9441
    56.8211     7232
    57.1231     6301
    57.4250     6530
    57.7270     9176
    58.0290     8165
    58.3310     6323
    58.6330     7590
    58.9350     9955
    59.2370     8233
    59.5390     6337
    59.8410     6582
    60.1430     9492
    60.4450     7299
    60.7470     6813
    61.0490     7810
    61.3510    10074
    61.6530     7410
    61.9550     6078
    62.2570     6175
    62.5590     6095
    62.8610     6155
    63.1630     7178
    63.4650     7974
    63.7670     6412
    64.0690     6281
    64.3710     6816
    64.6730     5935
    64.9750     6047
    65.2770     6007
    65.5790     6039
    65.8810     6163
    66.1829     6165
    66.4849     6143
    66.7869     5976
    67.0889     6025
    67.3909     6358
    67.6929     5877
    67.9949     5983
    68.2969     6107
    68.5989     6177
    68.9009     6685
    69.2029     8634
    69.5049     7311
    69.8069     7064
    70.1089     6504
    70.4109     6553
    70.7129     6304
    71.0149     6189
    71.3169     6045
    71.6189     6543
    71.9209     6887
    72.2229     5957
    72.5249     6506
    72.8269     6286
    73.1289     7491
    73.4309     6432
    73.7329     6366
    74.0349     7123
    74.3369     6418
    74.6388     6131
    74.9408     5990
    75.2428     5806
    75.5448     6013
    75.8468     6012
    76.1488     5900
    76.4508     6535
    76.7528     6597
    77.0548     6314
    77.3568     6102
    77.6588     6364
    77.9608     5832
    78.2628     5872
    78.5648     5756
    78.8668     6435
    79.1688     6231
    79.4708     6224
    79.7728     6755
    80.0748     6188
    80.3768     6130
    80.6788     6655
    80.9808     6379
    81.2828     6973
    81.5848     6188
    81.8868     5992
    82.1888     6208
    82.4908     6026
    82.7928     6044
    83.0947     5975
    83.3967     5840
    83.6987     5908
    84.0007     6013
    84.3027     6225
    84.6047     6229
    84.9067     5717
    85.2087     5887
    85.5107     5935
    85.8127     5789
    86.1147     6020
    86.4167     6122
    86.7187     6879
    87.0207     6727
    87.3227     6134
    87.6247     5966
    87.9267     6392
    88.2287     6026
    88.5307     6366
    88.8327     6302
    89.1347     6675
    89.4367     6700
    89.7387     6721
    90.0407     6167
    90.3427     5715
    90.6447     5682
    90.9467     6031
    91.2487     5933
    91.5507     5830
    91.8526     6249
    92.1546     6196
    92.4566     6088
    92.7586     5989
    93.0606     5734
    93.3626     5990
    93.6646     6014
    93.9666     5846
    94.2686     6275
    94.5706     6421
    94.8726     6010
    95.1746     5964
    95.4766     6168
    95.7786     5997
    96.0806     5884
    96.3826     5915
    96.6846     5859
    96.9866     6029
    97.2886     5908
    97.5906     6111
    97.8926     5868
    98.1946     6149
    98.4966     6012
    98.7986     5922
    99.1006     6069
    99.4026     5662
    99.7046     5669
    99.9934     5888

File: 290°C.XY
! Initial file:   D:\ZAKARY_OUAIL\MA_THESE\Deuxième_année_de_thèse\DRX\Affinement_DRX\Fullprof\Thermodiff3-nuit_NaNbO2F2\290°C\NaNbO2F2-Lent_290°C.xrdml
! Initial format:  58
! WAVE (A):      1.54060     1.54060     1.00000
! REM : data have been multiplied by     1.0000
! X_data : 2 Theta (deg.)
! Y_data : Intensity (arb. units)
!     X         Y
!--------------------------------------------------------------------------------
    10.0116     7485
    10.3136     7628
    10.6156     7633
    10.9176     8007
    11.2196    67483
    11.5216     7618
    11.8236     7915
    12.1256     7890
    12.4276     7972
    12.7296     7893
    13.0316     7664
    13.3336     7758
    13.6356     7728
    13.9376     7762
    14.2395     7753
    14.5415     9267
    14.8435     7707
    15.1455     7389
    15.4475     7823
    15.7495     7486
    16.0515     7637
    16.3535     7627
    16.6555     7498
    16.9575     7599
    17.2595     7283
    17.5615     7461
    17.8635     7656
    18.1655     7256
    18.4675     7159
    18.7695     7143
    19.0715     7315
    19.3735     7757
    19.6755    11073
    19.9775     9008
    20.2795     7486
    20.5815     7545
    20.8835     7385
    21.1855     7373
    21.4875     7533
    21.7895     7514
    22.0915     7316
    22.3935     7822
    22.6954     8321
    22.9974     7423
    23.2994     7445
    23.6014     7692
    23.9034    14479
    24.2054     9420
    24.5074     7386
    24.8094     7218
    25.1114     7278
    25.4134     7373
    25.7154     7194
    26.0174     7502
    26.3194     7371
    26.6214     7265
    26.9234     7111
    27.2254     7419
    27.5274     7381
    27.8294    14824
    28.1314     9657
    28.4334     7820
    28.7354     7693
    29.0374    22905
    29.3394    10919
    29.6414     7108
    29.9434     7011
    30.2454     6876
    30.5474     7061
    30.8494     6833
    31.1514     6961
    31.4533     6688
    31.7553     6946
    32.0573     6861
    32.3593     7008
    32.6613     7080
    32.9633    13490
    33.2653     7057
    33.5673    14375
    33.8693     7058
    34.1713    10090
    34.4733     6520
    34.7753    12078
    35.0773     7204
    35.3793     6520
    35.6813     6669
    35.9833     6301
    36.2853     6605
    36.5873     8168
    36.8893     6610
    37.1913     6659
    37.4933     7590
    37.7953     7661
    38.0973     6613
    38.3993     6506
    38.7013     6611
    39.0033     6531
    39.3053     6746
    39.6073     6508
    39.9092     6449
    40.2112     9280
    40.5132     6422
    40.8152     6718
    41.1172    11542
    41.4192     6351
    41.7212     6426
    42.0232     6477
    42.3252     6395
    42.6272     6387
    42.9292     6376
    43.2312     6438
    43.5332     7113
    43.8352     6276
    44.1372     6640
    44.4392     9196
    44.7412     6524
    45.0432     6371
    45.3452     6392
    45.6472     6511
    45.9492     7898
    46.2512     7749
    46.5532     6579
    46.8552     6494
    47.1572     6747
    47.4592     8126
    47.7612     7012
    48.0632    20307
    48.3652     6742
    48.6671     7208
    48.9691     7325
    49.2711    13809
    49.5731     6712
    49.8751    20060
    50.1771     6834
    50.4791     7472
    50.7811     6965
    51.0831     6454
    51.3851     6688
    51.6871    15973
    51.9891     6532
    52.2911     6404
    52.5931     6479
    52.8951     6411
    53.1971     6366
    53.4991     6378
    53.8011     6477
    54.1031     6258
    54.4051     6180
    54.7071     6361
    55.0091     6256
    55.3111     6682
    55.6131    14148
    55.9151     7233
    56.2171     9599
    56.5191    11089
    56.8211     6811
    57.1231     6450
    57.4250     6567
    57.7270     8017
    58.0290     8453
    58.3310     6463
    58.6330     8174
    58.9350    10109
    59.2370     8426
    59.5390     6254
    59.8410     6841
    60.1430     9510
    60.4450     8416
    60.7470     6683
    61.0490     9833
    61.3510     8627
    61.6530     7321
    61.9550     6256
    62.2570     6055
    62.5590     5961
    62.8610     6094
    63.1630     6724
    63.4650     8034
    63.7670     6117
    64.0690     6388
    64.3710     6660
    64.6730     6143
    64.9750     6193
    65.2770     6043
    65.5790     6027
    65.8810     5898
    66.1829     6115
    66.4849     6128
    66.7869     6022
    67.0889     5951
    67.3909     6117
    67.6929     5876
    67.9949     5946
    68.2969     6074
    68.5989     6397
    68.9009     6644
    69.2029     9731
    69.5049     6750
    69.8069     7208
    70.1089     6490
    70.4109     6623
    70.7129     6615
    71.0149     6066
    71.3169     6098
    71.6189     6239
    71.9209     6638
    72.2229     6325
    72.5249     6340
    72.8269     6262
    73.1289     7051
    73.4309     6329
    73.7329     6297
    74.0349     7375
    74.3369     6228
    74.6388     5997
    74.9408     6009
    75.2428     5960
    75.5448     5926
    75.8468     6071
    76.1488     5972
    76.4508     6451
    76.7528     6614
    77.0548     6433
    77.3568     6373
    77.6588     6342
    77.9608     5830
    78.2628     5992
    78.5648     6155
    78.8668     6358
    79.1688     6316
    79.4708     6428
    79.7728     6700
    80.0748     6397
    80.3768     6364
    80.6788     6636
    80.9808     6397
    81.2828     6543
    81.5848     6096
    81.8868     5855
    82.1888     6129
    82.4908     5917
    82.7928     6118
    83.0947     6044
    83.3967     5864
    83.6987     5835
    84.0007     5863
    84.3027     6173
    84.6047     5966
    84.9067     5966
    85.2087     5855
    85.5107     5915
    85.8127     5916
    86.1147     6129
    86.4167     6060
    86.7187     6967
    87.0207     6453
    87.3227     5732
    87.6247     6165
    87.9267     6263
    88.2287     6123
    88.5307     6532
    88.8327     6356
    89.1347     6744
    89.4367     6743
    89.7387     6774
    90.0407     6078
    90.3427     5911
    90.6447     5755
    90.9467     6129
    91.2487     6074
    91.5507     6170
    91.8526     6115
    92.1546     5994
    92.4566     5815
    92.7586     5863
    93.0606     5666
    93.3626     6162
    93.6646     6106
    93.9666     5584
    94.2686     6421
    94.5706     6170
    94.8726     5875
    95.1746     6092
    95.4766     6356
    95.7786     6016
    96.0806     5771
    96.3826     5581
    96.6846     5968
    96.9866     6083
    97.2886     5792
    97.5906     5866
    97.8926     5929
    98.1946     6052
    98.4966     6018
    98.7986     5810
    99.1006     5711
    99.4026     5788
    99.7046     5864
    99.9934     5674