Folder: data-NaMO2F2/powder_X-ray_diffraction/variable-temperature_experiments/NaNbO2F2/raw_data (part 2)

File: 120°C.XY
! Initial file:   D:\ZAKARY_OUAIL\MA_THESE\Deuxième_année_de_thèse\DRX\Affinement_DRX\Fullprof\Thermodiff3-nuit_NaNbO2F2\120°C\NaNbO2F2-Lent_120°C.xrdml
! Initial format:  58
! WAVE (A):      1.54060     1.54060     1.00000
! REM : data have been multiplied by     1.0000
! X_data : 2 Theta (deg.)
! Y_data : Intensity (arb. units)
!     X         Y
!--------------------------------------------------------------------------------
    10.0116     7994
    10.3136     8088
    10.6156     7896
    10.9176     8337
    11.2196    40012
    11.5216     8312
    11.8236     8290
    12.1256     8346
    12.4276     8496
    12.7296     8228
    13.0316     8165
    13.3336     7991
    13.6356     7995
    13.9376     7981
    14.2395     7999
    14.5415     9606
    14.8435     8085
    15.1455     7905
    15.4475     7853
    15.7495     7780
    16.0515     7735
    16.3535     7770
    16.6555     7712
    16.9575     7597
    17.2595     7616
    17.5615     7506
    17.8635     7600
    18.1655     7447
    18.4675     7271
    18.7695     7338
    19.0715     7332
    19.3735     7699
    19.6755     8778
    19.9775    21882
    20.2795     8072
    20.5815     7666
    20.8835     7334
    21.1855     7595
    21.4875     7419
    21.7895     7544
    22.0915     7489
    22.3935     7706
    22.6954    22775
    22.9974     7247
    23.2994     7517
    23.6014     7763
    23.9034    16309
    24.2054    25668
    24.5074     7341
    24.8094     7506
    25.1114     7455
    25.4134     7291
    25.7154     7282
    26.0174     7407
    26.3194     7146
    26.6214     7250
    26.9234     7259
    27.2254     7402
    27.5274     7534
    27.8294     8873
    28.1314    42008
    28.4334     7848
    28.7354     7753
    29.0374    33025
    29.3394    16255
    29.6414     7186
    29.9434     7005
    30.2454     7188
    30.5474     6902
    30.8494     7099
    31.1514     7101
    31.4533     6786
    31.7553     6877
    32.0573     6741
    32.3593     6925
    32.6613     6883
    32.9633    11826
    33.2653     7158
    33.5673     6946
    33.8693    11119
    34.1713     7803
    34.4733     6846
    34.7753     6976
    35.0773     9163
    35.3793     6696
    35.6813     6503
    35.9833     6317
    36.2853     6732
    36.5873     8495
    36.8893     6572
    37.1913     6656
    37.4933     6680
    37.7953    12497
    38.0973     6474
    38.3993     6524
    38.7013     6637
    39.0033     6405
    39.3053     8547
    39.6073     6452
    39.9092     6478
    40.2112     7314
    40.5132     7923
    40.8152     6313
    41.1172     8234
    41.4192     8565
    41.7212     6439
    42.0232     6557
    42.3252     6356
    42.6272     6350
    42.9292     6297
    43.2312     6458
    43.5332     6515
    43.8352     6909
    44.1372     6714
    44.4392     6534
    44.7412    13125
    45.0432     6437
    45.3452     6317
    45.6472     6347
    45.9492     6695
    46.2512    17622
    46.5532     6682
    46.8552     6548
    47.1572     6298
    47.4592     6685
    47.7612    10673
    48.0632     7015
    48.3652    12562
    48.6671     6771
    48.9691     7131
    49.2711     8599
    49.5731     8712
    49.8751     7224
    50.1771    12419
    50.4791     6569
    50.7811     7809
    51.0831     7028
    51.3851     6511
    51.6871     7395
    51.9891     8909
    52.2911     6395
    52.5931     6499
    52.8951     6437
    53.1971     6169
    53.4991     6386
    53.8011     6229
    54.1031     6241
    54.4051     6235
    54.7071     6268
    55.0091     6321
    55.3111     6309
    55.6131     6878
    55.9151    10524
    56.2171     7224
    56.5191     9403
    56.8211    10130
    57.1231     6967
    57.4250     6378
    57.7270     6333
    58.0290    10765
    58.3310     6545
    58.6330     6210
    58.9350     8531
    59.2370     8517
    59.5390     7389
    59.8410     6482
    60.1430    10149
    60.4450     6405
    60.7470     8802
    61.0490     6659
    61.3510     7685
    61.6530    10285
    61.9550     6268
    62.2570     6035
    62.5590     6089
    62.8610     6163
    63.1630     6219
    63.4650     6858
    63.7670     7364
    64.0690     5946
    64.3710     6084
    64.6730     6572
    64.9750     6103
    65.2770     6000
    65.5790     6028
    65.8810     5927
    66.1829     5980
    66.4849     6013
    66.7869     6003
    67.0889     5842
    67.3909     6101
    67.6929     5925
    67.9949     5865
    68.2969     6056
    68.5989     6009
    68.9009     5946
    69.2029     7320
    69.5049     7349
    69.8069     7285
    70.1089     6672
    70.4109     6087
    70.7129     6147
    71.0149     6347
    71.3169     6097
    71.6189     5990
    71.9209     6503
    72.2229     7438
    72.5249     5915
    72.8269     6406
    73.1289     6064
    73.4309     6074
    73.7329     6534
    74.0349     6206
    74.3369     6589
    74.6388     6937
    74.9408     5924
    75.2428     5739
    75.5448     5793
    75.8468     6104
    76.1488     6009
    76.4508     5934
    76.7528     6024
    77.0548     8257
    77.3568     6455
    77.6588     6460
    77.9608     6074
    78.2628     5864
    78.5648     6008
    78.8668     6256
    79.1688     6147
    79.4708     6345
    79.7728     6425
    80.0748     6408
    80.3768     5946
    80.6788     6119
    80.9808     6405
    81.2828     6433
    81.5848     6674
    81.8868     6542
    82.1888     5949
    82.4908     5983
    82.7928     6091
    83.0947     6595
    83.3967     6212
    83.6987     5862
    84.0007     5675
    84.3027     5735
    84.6047     5831
    84.9067     6286
    85.2087     6000
    85.5107     5806
    85.8127     5998
    86.1147     5867
    86.4167     5767
    86.7187     6086
    87.0207     6312
    87.3227     6749
    87.6247     6230
    87.9267     5817
    88.2287     5904
    88.5307     6101
    88.8327     6276
    89.1347     6556
    89.4367     6131
    89.7387     6533
    90.0407     6059
    90.3427     5809
    90.6447     5740
    90.9467     5792
    91.2487     5746
    91.5507     6235
    91.8526     6028
    92.1546     6057
    92.4566     6668
    92.7586     6220
    93.0606     5727
    93.3626     5876
    93.6646     5824
    93.9666     6079
    94.2686     6076
    94.5706     5894
    94.8726     6056
    95.1746     6187
    95.4766     6215
    95.7786     5914
    96.0806     6476
    96.3826     5723
    96.6846     5753
    96.9866     5647
    97.2886     5709
    97.5906     6142
    97.8926     6102
    98.1946     5780
    98.4966     5997
    98.7986     6063
    99.1006     5789
    99.4026     5826
    99.7046     5635
    99.9934     5627

File: 160°C.XY
! Initial file:   D:\ZAKARY_OUAIL\MA_THESE\Deuxième_année_de_thèse\DRX\Affinement_DRX\Fullprof\Thermodiff3-nuit_NaNbO2F2\160°C\NaNbO2F2-Lent_160°C.xrdml
! Initial format:  58
! WAVE (A):      1.54060     1.54060     1.00000
! REM : data have been multiplied by     1.0000
! X_data : 2 Theta (deg.)
! Y_data : Intensity (arb. units)
!     X         Y
!--------------------------------------------------------------------------------
    10.0116     7751
    10.3136     7757
    10.6156     7730
    10.9176     8435
    11.2196    44820
    11.5216     7904
    11.8236     8054
    12.1256     8283
    12.4276     8274
    12.7296     8332
    13.0316     8228
    13.3336     7916
    13.6356     7945
    13.9376     7976
    14.2395     8215
    14.5415     9806
    14.8435     7878
    15.1455     7670
    15.4475     7784
    15.7495     7936
    16.0515     8066
    16.3535     7698
    16.6555     7609
    16.9575     7680
    17.2595     7632
    17.5615     7385
    17.8635     7410
    18.1655     7200
    18.4675     7241
    18.7695     7302
    19.0715     7245
    19.3735     7567
    19.6755     8649
    19.9775    14454
    20.2795     7754
    20.5815     7674
    20.8835     7426
    21.1855     7473
    21.4875     7546
    21.7895     7591
    22.0915     7425
    22.3935     7470
    22.6954    17897
    22.9974     7353
    23.2994     7591
    23.6014     7743
    23.9034    16595
    24.2054    22012
    24.5074     7600
    24.8094     7397
    25.1114     7347
    25.4134     7267
    25.7154     7439
    26.0174     7341
    26.3194     7403
    26.6214     7307
    26.9234     7159
    27.2254     7586
    27.5274     7438
    27.8294     9190
    28.1314    24784
    28.4334     7788
    28.7354     7593
    29.0374    28453
    29.3394    16210
    29.6414     7178
    29.9434     7112
    30.2454     6920
    30.5474     6931
    30.8494     6906
    31.1514     6855
    31.4533     6836
    31.7553     6693
    32.0573     6984
    32.3593     6929
    32.6613     7144
    32.9633    17358
    33.2653     7095
    33.5673     7154
    33.8693     8456
    34.1713     9535
    34.4733     6897
    34.7753     6818
    35.0773     7697
    35.3793     6645
    35.6813     6529
    35.9833     6572
    36.2853     6644
    36.5873     8331
    36.8893     6567
    37.1913     6470
    37.4933     6883
    37.7953    11351
    38.0973     6631
    38.3993     6487
    38.7013     6358
    39.0033     6553
    39.3053     7720
    39.6073     6433
    39.9092     6241
    40.2112     7622
    40.5132     6769
    40.8152     6419
    41.1172     8249
    41.4192     7212
    41.7212     6404
    42.0232     6398
    42.3252     6547
    42.6272     6414
    42.9292     6318
    43.2312     6557
    43.5332     6744
    43.8352     6474
    44.1372     6697
    44.4392     6730
    44.7412    10205
    45.0432     6564
    45.3452     6367
    45.6472     6248
    45.9492     6923
    46.2512    11601
    46.5532     6650
    46.8552     6417
    47.1572     6677
    47.4592     7369
    47.7612     9308
    48.0632     7056
    48.3652    13070
    48.6671     6734
    48.9691     7070
    49.2711    13514
    49.5731     8627
    49.8751     7582
    50.1771     9493
    50.4791     6802
    50.7811     9189
    51.0831     6369
    51.3851     6471
    51.6871     8294
    51.9891     7887
    52.2911     6515
    52.5931     6374
    52.8951     6689
    53.1971     6174
    53.4991     6290
    53.8011     6353
    54.1031     6296
    54.4051     6153
    54.7071     6358
    55.0091     6322
    55.3111     6247
    55.6131     6901
    55.9151    11670
    56.2171     6901
    56.5191     7557
    56.8211     8774
    57.1231     6652
    57.4250     6384
    57.7270     6601
    58.0290    10634
    58.3310     6377
    58.6330     6713
    58.9350     9136
    59.2370     8884
    59.5390     8045
    59.8410     6551
    60.1430     8435
    60.4450     6204
    60.7470     7721
    61.0490     6522
    61.3510    12966
    61.6530     7747
    61.9550     6235
    62.2570     6008
    62.5590     6206
    62.8610     6187
    63.1630     6182
    63.4650     7399
    63.7670     7047
    64.0690     6105
    64.3710     6234
    64.6730     6671
    64.9750     6102
    65.2770     5971
    65.5790     6176
    65.8810     5905
    66.1829     5901
    66.4849     5974
    66.7869     5924
    67.0889     5995
    67.3909     6253
    67.6929     5983
    67.9949     6099
    68.2969     5985
    68.5989     6048
    68.9009     6136
    69.2029     7159
    69.5049     7582
    69.8069     7415
    70.1089     6600
    70.4109     6180
    70.7129     6457
    71.0149     6504
    71.3169     6149
    71.6189     6055
    71.9209     6431
    72.2229     7089
    72.5249     5997
    72.8269     6091
    73.1289     6134
    73.4309     7073
    73.7329     6533
    74.0349     6214
    74.3369     6655
    74.6388     6794
    74.9408     6096
    75.2428     6035
    75.5448     6045
    75.8468     6196
    76.1488     6058
    76.4508     6138
    76.7528     6358
    77.0548     6966
    77.3568     6310
    77.6588     6603
    77.9608     6014
    78.2628     5938
    78.5648     5965
    78.8668     6107
    79.1688     7080
    79.4708     6571
    79.7728     6848
    80.0748     6443
    80.3768     6071
    80.6788     6248
    80.9808     6822
    81.2828     6355
    81.5848     6636
    81.8868     6118
    82.1888     5930
    82.4908     6228
    82.7928     6474
    83.0947     6659
    83.3967     6038
    83.6987     5856
    84.0007     5837
    84.3027     5917
    84.6047     5905
    84.9067     6306
    85.2087     5898
    85.5107     5753
    85.8127     6135
    86.1147     6078
    86.4167     5803
    86.7187     6320
    87.0207     6780
    87.3227     6768
    87.6247     5952
    87.9267     6029
    88.2287     6453
    88.5307     6449
    88.8327     6129
    89.1347     6317
    89.4367     6535
    89.7387     6280
    90.0407     6069
    90.3427     5722
    90.6447     5790
    90.9467     5689
    91.2487     5871
    91.5507     6147
    91.8526     6233
    92.1546     6542
    92.4566     6240
    92.7586     5884
    93.0606     5836
    93.3626     5884
    93.6646     5890
    93.9666     6483
    94.2686     6178
    94.5706     5855
    94.8726     6351
    95.1746     6399
    95.4766     6127
    95.7786     5767
    96.0806     6067
    96.3826     5814
    96.6846     5893
    96.9866     5823
    97.2886     5954
    97.5906     6282
    97.8926     5703
    98.1946     5686
    98.4966     5780
    98.7986     6273
    99.1006     6001
    99.4026     5771
    99.7046     5685
    99.9934     5661

File: 200°C.XY
! Initial file:   D:\ZAKARY_OUAIL\MA_THESE\Deuxième_année_de_thèse\DRX\Affinement_DRX\Fullprof\Thermodiff3-nuit_NaNbO2F2\200°C\NaNbO2F2-Lent_200°C.xrdml
! Initial format:  58
! WAVE (A):      1.54060     1.54060     1.00000
! REM : data have been multiplied by     1.0000
! X_data : 2 Theta (deg.)
! Y_data : Intensity (arb. units)
!     X         Y
!--------------------------------------------------------------------------------
    10.0116     7637
    10.3136     7976
    10.6156     7738
    10.9176     8200
    11.2196    51075
    11.5216     7871
    11.8236     8013
    12.1256     8161
    12.4276     8202
    12.7296     7948
    13.0316     7950
    13.3336     7816
    13.6356     7990
    13.9376     8077
    14.2395     7842
    14.5415     9693
    14.8435     7684
    15.1455     7769
    15.4475     7692
    15.7495     7748
    16.0515     7866
    16.3535     7729
    16.6555     7548
    16.9575     7842
    17.2595     7603
    17.5615     7252
    17.8635     7419
    18.1655     7526
    18.4675     7231
    18.7695     7097
    19.0715     7296
    19.3735     7718
    19.6755     9143
    19.9775    11218
    20.2795     7586
    20.5815     7465
    20.8835     7419
    21.1855     7320
    21.4875     7495
    21.7895     7644
    22.0915     7430
    22.3935     7561
    22.6954    13474
    22.9974     7516
    23.2994     7811
    23.6014     7577
    23.9034    15459
    24.2054    16839
    24.5074     7486
    24.8094     7459
    25.1114     7420
    25.4134     7244
    25.7154     7298
    26.0174     7430
    26.3194     7146
    26.6214     7259
    26.9234     7222
    27.2254     7452
    27.5274     7515
    27.8294    10018
    28.1314    15126
    28.4334     7670
    28.7354     7759
    29.0374    26234
    29.3394    14220
    29.6414     7353
    29.9434     7051
    30.2454     6955
    30.5474     6848
    30.8494     6945
    31.1514     6825
    31.4533     6958
    31.7553     7011
    32.0573     6805
    32.3593     6864
    32.6613     6874
    32.9633    14481
    33.2653     7137
    33.5673     7293
    33.8693     7319
    34.1713    13431
    34.4733     6916
    34.7753     6873
    35.0773     7247
    35.3793     6450
    35.6813     6430
    35.9833     6498
    36.2853     6824
    36.5873     8389
    36.8893     6305
    37.1913     6604
    37.4933     7405
    37.7953    11167
    38.0973     6822
    38.3993     6490
    38.7013     6373
    39.0033     6405
    39.3053     7908
    39.6073     6477
    39.9092     6360
    40.2112     7460
    40.5132     6827
    40.8152     6495
    41.1172    10813
    41.4192     6755
    41.7212     6457
    42.0232     6512
    42.3252     6315
    42.6272     6345
    42.9292     6593
    43.2312     6251
    43.5332     6958
    43.8352     6491
    44.1372     6613
    44.4392     6600
    44.7412     9710
    45.0432     6330
    45.3452     6435
    45.6472     6414
    45.9492     6750
    46.2512    13393
    46.5532     6633
    46.8552     6458
    47.1572     6426
    47.4592     9020
    47.7612     7968
    48.0632     7562
    48.3652    10752
    48.6671     6830
    48.9691     7042
    49.2711    14639
    49.5731     7377
    49.8751     8691
    50.1771     7753
    50.4791     7153
    50.7811     9748
    51.0831     6536
    51.3851     6575
    51.6871    10584
    51.9891     7241
    52.2911     6495
    52.5931     6434
    52.8951     6639
    53.1971     6434
    53.4991     6288
    53.8011     6302
    54.1031     6313
    54.4051     6135
    54.7071     6253
    55.0091     6273
    55.3111     6401
    55.6131     7391
    55.9151     8910
    56.2171     6590
    56.5191     8122
    56.8211     8013
    57.1231     6524
    57.4250     6402
    57.7270     7008
    58.0290     9554
    58.3310     6256
    58.6330     7577
    58.9350     9309
    59.2370     9915
    59.5390     6703
    59.8410     6468
    60.1430     8017
    60.4450     6385
    60.7470     7383
    61.0490     6448
    61.3510    12339
    61.6530     7225
    61.9550     6223
    62.2570     6209
    62.5590     6057
    62.8610     6014
    63.1630     6190
    63.4650     7008
    63.7670     6668
    64.0690     5946
    64.3710     6884
    64.6730     6377
    64.9750     6207
    65.2770     6074
    65.5790     6021
    65.8810     5948
    66.1829     5956
    66.4849     6157
    66.7869     6069
    67.0889     5952
    67.3909     6053
    67.6929     6191
    67.9949     6034
    68.2969     6122
    68.5989     5912
    68.9009     6509
    69.2029     7350
    69.5049     8594
    69.8069     6909
    70.1089     6387
    70.4109     6129
    70.7129     6666
    71.0149     6409
    71.3169     6087
    71.6189     6070
    71.9209     7143
    72.2229     7210
    72.5249     6124
    72.8269     6247
    73.1289     6064
    73.4309     7059
    73.7329     6261
    74.0349     6187
    74.3369     7453
    74.6388     6324
    74.9408     5945
    75.2428     5823
    75.5448     5951
    75.8468     6167
    76.1488     5887
    76.4508     6267
    76.7528     6639
    77.0548     6825
    77.3568     6188
    77.6588     6228
    77.9608     5973
    78.2628     5926
    78.5648     5982
    78.8668     6180
    79.1688     6614
    79.4708     6052
    79.7728     6822
    80.0748     6369
    80.3768     5909
    80.6788     6828
    80.9808     6458
    81.2828     6304
    81.5848     6337
    81.8868     6188
    82.1888     5938
    82.4908     6163
    82.7928     6174
    83.0947     6187
    83.3967     5816
    83.6987     5828
    84.0007     5763
    84.3027     6021
    84.6047     6088
    84.9067     6139
    85.2087     5772
    85.5107     5940
    85.8127     5928
    86.1147     5697
    86.4167     5896
    86.7187     6136
    87.0207     6491
    87.3227     6267
    87.6247     6069
    87.9267     6079
    88.2287     6172
    88.5307     5925
    88.8327     6281
    89.1347     6441
    89.4367     6576
    89.7387     6539
    90.0407     5934
    90.3427     5868
    90.6447     5947
    90.9467     5740
    91.2487     5967
    91.5507     6203
    91.8526     6160
    92.1546     6518
    92.4566     6206
    92.7586     5894
    93.0606     5813
    93.3626     5829
    93.6646     5940
    93.9666     6178
    94.2686     5932
    94.5706     6123
    94.8726     6396
    95.1746     6359
    95.4766     6674
    95.7786     6545
    96.0806     5922
    96.3826     5878
    96.6846     5496
    96.9866     5904
    97.2886     6075
    97.5906     6241
    97.8926     5798
    98.1946     5577
    98.4966     6068
    98.7986     6143
    99.1006     5794
    99.4026     5670
    99.7046     5663
    99.9934     5697