Folder: data-NaMO2F2/powder_X-ray_diffraction/variable-temperature_experiments/NaTaO2F2/raw_data (part 3)

File: 180°C.XY
! Initial file:   D:\ZAKARY_OUAIL\MA_THESE\Deuxième_année_de_thèse\DRX\Manips_DRX\1st_NaTaO2F2_XRK900\NaTaO2F2-Lent_180°C.xrdml
! Initial format:  58
! WAVE (A):      1.54060     1.54060     1.00000
! REM : data have been multiplied by     1.0000
! X_data : 2 Theta (deg.)
! Y_data : Intensity (arb. units)
!     X         Y
!--------------------------------------------------------------------------------
    10.0116     6865
    10.3136     6569
    10.6156     6451
    10.9176     7078
    11.2196    10814
    11.5216     6138
    11.8236     5950
    12.1256     5986
    12.4276     5902
    12.7296     5777
    13.0316     5574
    13.3336     5467
    13.6356     5407
    13.9376     5276
    14.2395     5173
    14.5415     5089
    14.8435     5047
    15.1455     5017
    15.4475     4793
    15.7495     4830
    16.0515     4844
    16.3535     4797
    16.6555     4681
    16.9575     4691
    17.2595     4899
    17.5615     4534
    17.8635     4466
    18.1655     4536
    18.4675     4337
    18.7695     4163
    19.0715     4610
    19.3735     4783
    19.6755   123122
    19.9775     4600
    20.2795     4389
    20.5815     4127
    20.8835     3960
    21.1855     4076
    21.4875     3950
    21.7895     4137
    22.0915     3965
    22.3935    16568
    22.6954     3920
    22.9974     3731
    23.2994     3761
    23.6014     4057
    23.9034     4271
    24.2054    46324
    24.5074    14437
    24.8094     3689
    25.1114     3697
    25.4134     3691
    25.7154     3471
    26.0174     3392
    26.3194     3348
    26.6214     3563
    26.9234     3536
    27.2254     3618
    27.5274     4917
    27.8294    35130
    28.1314     3691
    28.4334     3625
    28.7354     3555
    29.0374     3893
    29.3394    22760
    29.6414     3739
    29.9434     3450
    30.2454     3249
    30.5474     3245
    30.8494     3105
    31.1514     3097
    31.4533     3145
    31.7553     3224
    32.0573     3070
    32.3593     3144
    32.6613     6664
    32.9633     3577
    33.2653    35369
    33.5673     4895
    33.8693    12933
    34.1713     3259
    34.4733     3392
    34.7753     7535
    35.0773     3350
    35.3793     2920
    35.6813     2994
    35.9833     2992
    36.2853     2955
    36.5873     3359
    36.8893     3112
    37.1913     3240
    37.4933     5114
    37.7953     2922
    38.0973     2833
    38.3993     2772
    38.7013     2735
    39.0033     2794
    39.3053     2822
    39.6073     3081
    39.9092     3423
    40.2112     3396
    40.5132     3500
    40.8152     3342
    41.1172    13794
    41.4192     3907
    41.7212     2654
    42.0232     2737
    42.3252     2723
    42.6272     2640
    42.9292     2814
    43.2312     2772
    43.5332     2993
    43.8352     2630
    44.1372     3163
    44.4392     3088
    44.7412     2970
    45.0432     2595
    45.3452     2691
    45.6472    11588
    45.9492     2737
    46.2512     3150
    46.5532     2957
    46.8552     2832
    47.1572     7290
    47.4592     3097
    47.7612    16418
    48.0632     3431
    48.3652    12707
    48.6671     4328
    48.9691     3780
    49.2711     2831
    49.5731     3504
    49.8751     4743
    50.1771     5652
    50.4791     9865
    50.7811     3183
    51.0831     2781
    51.3851     9243
    51.6871     3109
    51.9891     2801
    52.2911     3079
    52.5931     7031
    52.8951     4869
    53.1971     2890
    53.4991     3726
    53.8011     2777
    54.1031     2664
    54.4051     2937
    54.7071     2680
    55.0091     2679
    55.3111     3546
    55.6131     5626
    55.9151     3111
    56.2171     4215
    56.5191     6053
    56.8211     2942
    57.1231     9768
    57.4250     4583
    57.7270     3177
    58.0290     6915
    58.3310     3074
    58.6330     5485
    58.9350     6787
    59.2370     5977
    59.5390     3392
    59.8410     9667
    60.1430     3580
    60.4450     3018
    60.7470    10493
    61.0490     5110
    61.3510     2885
    61.6530     2610
    61.9550     2581
    62.2570     2361
    62.5590     2405
    62.8610     2457
    63.1630     2579
    63.4650     2802
    63.7670     3359
    64.0690     4238
    64.3710     3303
    64.6730     2496
    64.9750     2694
    65.2770     2465
    65.5790     2453
    65.8810     2401
    66.1829     2382
    66.4849     2521
    66.7869     2404
    67.0889     2408
    67.3909     2393
    67.6929     2455
    67.9949     3216
    68.2969     3039
    68.5989     5298
    68.9009     2603
    69.2029     3214
    69.5049     3460
    69.8069     4802
    70.1089     4663
    70.4109     3951
    70.7129     3526
    71.0149     3511
    71.3169     2997
    71.6189     3739
    71.9209     3653
    72.2229     2505
    72.5249     3092
    72.8269     3445
    73.1289     4342
    73.4309     4040
    73.7329     3030
    74.0349     5286
    74.3369     2708
    74.6388     2375
    74.9408     2263
    75.2428     2416
    75.5448     2455
    75.8468     2420
    76.1488     3051
    76.4508     3202
    76.7528     2679
    77.0548     3406
    77.3568     2641
    77.6588     2728
    77.9608     2568
    78.2628     2998
    78.5648     3167
    78.8668     3894
    79.1688     3141
    79.4708     3266
    79.7728     2762
    80.0748     4206
    80.3768     6644
    80.6788     4004
    80.9808     3421
    81.2828     2911
    81.5848     2574
    81.8868     2850
    82.1888     3412
    82.4908     3164
    82.7928     3082
    83.0947     2462
    83.3967     2716
    83.6987     2733
    84.0007     2371
    84.3027     2476
    84.6047     2349
    84.9067     2479
    85.2087     2772
    85.5107     3921
    85.8127     3278
    86.1147     2469
    86.4167     2850
    86.7187     2693
    87.0207     2713
    87.3227     2862
    87.6247     2878
    87.9267     2905
    88.2287     2799
    88.5307     2777
    88.8327     2599
    89.1347     2781
    89.4367     2629
    89.7387     2704
    90.0407     2963
    90.3427     3015
    90.6447     3405
    90.9467     3119
    91.2487     3606
    91.5507     3300
    91.8526     2905
    92.1546     2636
    92.4566     2935
    92.7586     3600
    93.0606     3036
    93.3626     2415
    93.6646     2401
    93.9666     2801
    94.2686     2616
    94.5706     3026
    94.8726     2738
    95.1746     2457
    95.4766     2335
    95.7786     2334
    96.0806     2485
    96.3826     2394
    96.6846     3624
    96.9866     3574
    97.2886     2863
    97.5906     3431
    97.8926     2936
    98.1946     2471
    98.4966     3013
    98.7986     3008
    99.1006     4203
    99.4026     3999
    99.7046     2969
    99.9934     2770

File: 220°C.XY
! Initial file:   D:\ZAKARY_OUAIL\MA_THESE\Deuxième_année_de_thèse\DRX\Manips_DRX\1st_NaTaO2F2_XRK900\NaTaO2F2-Lent_220°C.xrdml
! Initial format:  58
! WAVE (A):      1.54060     1.54060     1.00000
! REM : data have been multiplied by     1.0000
! X_data : 2 Theta (deg.)
! Y_data : Intensity (arb. units)
!     X         Y
!--------------------------------------------------------------------------------
    10.0116     6604
    10.3136     6257
    10.6156     6357
    10.9176     6928
    11.2196    10266
    11.5216     5936
    11.8236     5838
    12.1256     5713
    12.4276     5566
    12.7296     5537
    13.0316     5477
    13.3336     5471
    13.6356     5169
    13.9376     5094
    14.2395     5098
    14.5415     4910
    14.8435     4814
    15.1455     4809
    15.4475     4828
    15.7495     4759
    16.0515     4723
    16.3535     4836
    16.6555     4606
    16.9575     4481
    17.2595     4734
    17.5615     4472
    17.8635     4375
    18.1655     4269
    18.4675     4234
    18.7695     4325
    19.0715     4481
    19.3735     4889
    19.6755   121917
    19.9775     4564
    20.2795     4217
    20.5815     4156
    20.8835     3914
    21.1855     3926
    21.4875     3939
    21.7895     4179
    22.0915     3809
    22.3935    16321
    22.6954     3784
    22.9974     3640
    23.2994     3654
    23.6014     3893
    23.9034     4179
    24.2054    47317
    24.5074    10706
    24.8094     3822
    25.1114     3586
    25.4134     3609
    25.7154     3410
    26.0174     3542
    26.3194     3542
    26.6214     3381
    26.9234     3680
    27.2254     3568
    27.5274     5310
    27.8294    21358
    28.1314     3683
    28.4334     3542
    28.7354     3570
    29.0374     3890
    29.3394    20569
    29.6414     3596
    29.9434     3536
    30.2454     3209
    30.5474     3248
    30.8494     3225
    31.1514     3177
    31.4533     3137
    31.7553     3150
    32.0573     3262
    32.3593     3304
    32.6613    19528
    32.9633     3562
    33.2653    32683
    33.5673     5919
    33.8693    10843
    34.1713     3198
    34.4733     3495
    34.7753     4279
    35.0773     3187
    35.3793     2832
    35.6813     2887
    35.9833     2965
    36.2853     2902
    36.5873     3551
    36.8893     3120
    37.1913     3341
    37.4933     3312
    37.7953     2862
    38.0973     2762
    38.3993     2867
    38.7013     2790
    39.0033     2718
    39.3053     2687
    39.6073     3971
    39.9092     4923
    40.2112     3397
    40.5132     3297
    40.8152     3790
    41.1172    10671
    41.4192     3279
    41.7212     2784
    42.0232     2654
    42.3252     2804
    42.6272     2653
    42.9292     2684
    43.2312     2574
    43.5332     2725
    43.8352     2630
    44.1372     3983
    44.4392     4315
    44.7412     2735
    45.0432     2636
    45.3452     2802
    45.6472     9954
    45.9492     2731
    46.2512     3317
    46.5532     2902
    46.8552     2780
    47.1572     5437
    47.4592     3234
    47.7612    17302
    48.0632     3247
    48.3652    12888
    48.6671     6406
    48.9691     3179
    49.2711     2977
    49.5731     3406
    49.8751     7780
    50.1771     4525
    50.4791     8268
    50.7811     2972
    51.0831     2943
    51.3851     4742
    51.6871     3057
    51.9891     2858
    52.2911     3031
    52.5931     5853
    52.8951     5962
    53.1971     2777
    53.4991     3837
    53.8011     2797
    54.1031     2691
    54.4051     2786
    54.7071     2740
    55.0091     2836
    55.3111     8019
    55.6131     3515
    55.9151     2850
    56.2171     7361
    56.5191     4675
    56.8211     3100
    57.1231     6852
    57.4250     4640
    57.7270     3425
    58.0290     6237
    58.3310     3298
    58.6330     7500
    58.9350     8206
    59.2370     3237
    59.5390     5257
    59.8410    10200
    60.1430     3239
    60.4450     3219
    60.7470     7375
    61.0490     5524
    61.3510     2708
    61.6530     2591
    61.9550     2451
    62.2570     2510
    62.5590     2465
    62.8610     2431
    63.1630     2617
    63.4650     3115
    63.7670     2886
    64.0690     3465
    64.3710     2912
    64.6730     2551
    64.9750     2749
    65.2770     2409
    65.5790     2369
    65.8810     2426
    66.1829     2448
    66.4849     2474
    66.7869     2403
    67.0889     2326
    67.3909     2476
    67.6929     2441
    67.9949     3393
    68.2969     2774
    68.5989     2973
    68.9009     2491
    69.2029     3984
    69.5049     3402
    69.8069     6376
    70.1089     4241
    70.4109     4537
    70.7129     3839
    71.0149     3623
    71.3169     3657
    71.6189     4176
    71.9209     3107
    72.2229     2437
    72.5249     4101
    72.8269     2701
    73.1289     3109
    73.4309     3389
    73.7329     3363
    74.0349     4084
    74.3369     2520
    74.6388     2425
    74.9408     2420
    75.2428     2410
    75.5448     2540
    75.8468     2585
    76.1488     3562
    76.4508     3631
    76.7528     3197
    77.0548     3351
    77.3568     2513
    77.6588     2567
    77.9608     2774
    78.2628     3375
    78.5648     3854
    78.8668     4092
    79.1688     2814
    79.4708     3141
    79.7728     2877
    80.0748     4199
    80.3768     4751
    80.6788     4007
    80.9808     3606
    81.2828     2888
    81.5848     2450
    81.8868     3741
    82.1888     3289
    82.4908     3916
    82.7928     2701
    83.0947     2556
    83.3967     2859
    83.6987     2647
    84.0007     2408
    84.3027     2475
    84.6047     2521
    84.9067     2457
    85.2087     2904
    85.5107     4301
    85.8127     3032
    86.1147     2647
    86.4167     2644
    86.7187     3327
    87.0207     2968
    87.3227     3111
    87.6247     2825
    87.9267     2801
    88.2287     3738
    88.5307     3129
    88.8327     2613
    89.1347     2728
    89.4367     2825
    89.7387     3182
    90.0407     3583
    90.3427     2959
    90.6447     2919
    90.9467     3208
    91.2487     3667
    91.5507     3807
    91.8526     3213
    92.1546     2781
    92.4566     2924
    92.7586     2920
    93.0606     2564
    93.3626     2480
    93.6646     2816
    93.9666     2889
    94.2686     2600
    94.5706     3321
    94.8726     2919
    95.1746     2453
    95.4766     2366
    95.7786     2371
    96.0806     2421
    96.3826     2623
    96.6846     3042
    96.9866     2844
    97.2886     2605
    97.5906     2805
    97.8926     2762
    98.1946     2501
    98.4966     3650
    98.7986     3459
    99.1006     4420
    99.4026     3469
    99.7046     2733
    99.9934     2744

File: 230°C.XY
! Initial file:   D:\ZAKARY_OUAIL\MA_THESE\Deuxième_année_de_thèse\DRX\Manips_DRX\1st_NaTaO2F2_XRK900\NaTaO2F2-Lent_230°C.xrdml
! Initial format:  58
! WAVE (A):      1.54060     1.54060     1.00000
! REM : data have been multiplied by     1.0000
! X_data : 2 Theta (deg.)
! Y_data : Intensity (arb. units)
!     X         Y
!--------------------------------------------------------------------------------
    10.0116     6462
    10.3136     6331
    10.6156     6236
    10.9176     6858
    11.2196     9711
    11.5216     6097
    11.8236     6007
    12.1256     5679
    12.4276     5601
    12.7296     5546
    13.0316     5472
    13.3336     5276
    13.6356     5340
    13.9376     5157
    14.2395     4970
    14.5415     4981
    14.8435     4700
    15.1455     4843
    15.4475     4806
    15.7495     4626
    16.0515     4772
    16.3535     4784
    16.6555     4595
    16.9575     4473
    17.2595     4738
    17.5615     4431
    17.8635     4364
    18.1655     4259
    18.4675     4146
    18.7695     4261
    19.0715     4614
    19.3735     4801
    19.6755   120079
    19.9775     4731
    20.2795     4315
    20.5815     4097
    20.8835     4040
    21.1855     3914
    21.4875     3875
    21.7895     4247
    22.0915     3862
    22.3935    16403
    22.6954     3846
    22.9974     3811
    23.2994     3699
    23.6014     3880
    23.9034     4245
    24.2054    45353
    24.5074     9546
    24.8094     3760
    25.1114     3664
    25.4134     3623
    25.7154     3489
    26.0174     3530
    26.3194     3553
    26.6214     3549
    26.9234     3657
    27.2254     3733
    27.5274     5398
    27.8294    18288
    28.1314     3622
    28.4334     3607
    28.7354     3451
    29.0374     3967
    29.3394    20217
    29.6414     3608
    29.9434     3314
    30.2454     3314
    30.5474     3172
    30.8494     3240
    31.1514     3125
    31.4533     3073
    31.7553     3147
    32.0573     3177
    32.3593     3154
    32.6613    21521
    32.9633     3585
    33.2653    32194
    33.5673     6511
    33.8693    10987
    34.1713     3185
    34.4733     3542
    34.7753     3900
    35.0773     3067
    35.3793     3020
    35.6813     2869
    35.9833     2941
    36.2853     2967
    36.5873     3432
    36.8893     3179
    37.1913     3372
    37.4933     3302
    37.7953     2871
    38.0973     2756
    38.3993     2786
    38.7013     2793
    39.0033     2786
    39.3053     2853
    39.6073     4167
    39.9092     5904
    40.2112     3362
    40.5132     3205
    40.8152     4201
    41.1172     9698
    41.4192     3037
    41.7212     2764
    42.0232     2692
    42.3252     2794
    42.6272     2646
    42.9292     2738
    43.2312     2657
    43.5332     2806
    43.8352     2726
    44.1372     4128
    44.4392     4711
    44.7412     2831
    45.0432     2672
    45.3452     2811
    45.6472     8745
    45.9492     2809
    46.2512     3395
    46.5532     2922
    46.8552     2837
    47.1572     5600
    47.4592     3256
    47.7612    14904
    48.0632     3171
    48.3652    13257
    48.6671     7606
    48.9691     3162
    49.2711     2975
    49.5731     3393
    49.8751     9346
    50.1771     4236
    50.4791     6991
    50.7811     3033
    51.0831     2997
    51.3851     4649
    51.6871     3093
    51.9891     2764
    52.2911     3021
    52.5931     6103
    52.8951     6015
    53.1971     2684
    53.4991     3938
    53.8011     2854
    54.1031     2707
    54.4051     2818
    54.7071     2685
    55.0091     2780
    55.3111    10335
    55.6131     3616
    55.9151     2890
    56.2171     8155
    56.5191     4357
    56.8211     3189
    57.1231     6712
    57.4250     4387
    57.7270     3621
    58.0290     5674
    58.3310     3565
    58.6330     8460
    58.9350     9259
    59.2370     3152
    59.5390     5924
    59.8410    10471
    60.1430     3224
    60.4450     3264
    60.7470     7612
    61.0490     5257
    61.3510     2671
    61.6530     2639
    61.9550     2577
    62.2570     2554
    62.5590     2454
    62.8610     2457
    63.1630     2425
    63.4650     3469
    63.7670     2774
    64.0690     3644
    64.3710     2785
    64.6730     2515
    64.9750     2787
    65.2770     2472
    65.5790     2313
    65.8810     2403
    66.1829     2405
    66.4849     2433
    66.7869     2459
    67.0889     2339
    67.3909     2456
    67.6929     2440
    67.9949     3526
    68.2969     2794
    68.5989     3099
    68.9009     2568
    69.2029     3951
    69.5049     3389
    69.8069     7006
    70.1089     4167
    70.4109     4738
    70.7129     4195
    71.0149     3743
    71.3169     3968
    71.6189     4523
    71.9209     3137
    72.2229     2560
    72.5249     3950
    72.8269     2661
    73.1289     2953
    73.4309     3238
    73.7329     3819
    74.0349     3982
    74.3369     2457
    74.6388     2411
    74.9408     2383
    75.2428     2467
    75.5448     2487
    75.8468     2533
    76.1488     3913
    76.4508     3539
    76.7528     3566
    77.0548     3390
    77.3568     2580
    77.6588     2644
    77.9608     2716
    78.2628     3653
    78.5648     4327
    78.8668     3713
    79.1688     2779
    79.4708     3199
    79.7728     2988
    80.0748     3868
    80.3768     4547
    80.6788     4031
    80.9808     3534
    81.2828     2917
    81.5848     2584
    81.8868     3596
    82.1888     3056
    82.4908     3823
    82.7928     2642
    83.0947     2690
    83.3967     2938
    83.6987     2781
    84.0007     2518
    84.3027     2558
    84.6047     2400
    84.9067     2538
    85.2087     3094
    85.5107     3968
    85.8127     2887
    86.1147     2667
    86.4167     2689
    86.7187     3306
    87.0207     2746
    87.3227     2822
    87.6247     3031
    87.9267     2857
    88.2287     3732
    88.5307     2983
    88.8327     2568
    89.1347     2755
    89.4367     2856
    89.7387     3232
    90.0407     3871
    90.3427     3132
    90.6447     2854
    90.9467     2969
    91.2487     3572
    91.5507     4116
    91.8526     3265
    92.1546     2775
    92.4566     3113
    92.7586     2833
    93.0606     2511
    93.3626     2332
    93.6646     3046
    93.9666     2972
    94.2686     2561
    94.5706     3146
    94.8726     2759
    95.1746     2422
    95.4766     2420
    95.7786     2418
    96.0806     2371
    96.3826     2717
    96.6846     3224
    96.9866     2768
    97.2886     2607
    97.5906     2761
    97.8926     2729
    98.1946     2506
    98.4966     3708
    98.7986     3586
    99.1006     4350
    99.4026     3392
    99.7046     2717
    99.9934     2757