Folder: data-NaMO2F2/powder_X-ray_diffraction/variable-temperature_experiments/NaTaO2F2/raw_data

Note: powder_X-ray_diffraction/README.md
# Powder X-Ray Diffraction Data for NaMO<sub>2</sub>F<sub>2</sub> (M = Nb<sup>5+</sup>, Ta<sup>5+</sup>)

**Author:** Ouail Zakary  
**ORCID:** [0000-0002-7793-3306](https://orcid.org/0000-0002-7793-3306)  
**E-mail:** [Ouail.Zakary@oulu.fi](mailto:Ouail.Zakary@oulu.fi)  
**Website:** [Ouail Zakary - webpage](https://cc.oulu.fi/~nmrwww/members/Ouail_Zakary.html)

This repository contains datasets of **Powder X-Ray Diffraction (PXRD)** data for the compounds NaNbO<sub>2</sub>F<sub>2</sub> and NaTaO<sub>2</sub>F<sub>2</sub>, recorded under both room temperature (RT) and variable temperature conditions.

## Overview of the Data

The dataset is organized into two main families of experiments:

1. **Room Temperature PXRD Data:**  
   **Folder:** `./room_temperature_experiments`
   - **NaNbO<sub>2</sub>F<sub>2</sub> Data:**  
     - [Raw Data](./room_temperature_experiments/NaNbO2F2/raw_data/)
     - [Rietveld Refinement Data](./room_temperature_experiments/NaNbO2F2/Rietveld_refinement/)
   - **NaTaO<sub>2</sub>F<sub>2</sub> Data:**  
     - [Raw Data](./room_temperature_experiments/NaTaO2F2/raw_data/)
     - [Rietveld Refinement Data](./room_temperature_experiments/NaTaO2F2/Rietveld_refinement/)

2. **Variable Temperature PXRD Data:**  
   **Folder:** `./variable-temperature_experiments`
   - **NaNbO<sub>2</sub>F<sub>2</sub> Data:**  
     - [Raw Data](./variable-temperature_experiments/NaNbO2F2/raw_data/)
     - [Rietveld Refinement Data](./variable-temperature_experiments/NaNbO2F2/Rietveld_refinement/)
   - **NaTaO<sub>2</sub>F<sub>2</sub> Data:**  
     - [Raw Data](./variable-temperature_experiments/NaTaO2F2/raw_data/)
     - [Rietveld Refinement Data](./variable-temperature_experiments/NaTaO2F2/Rietveld_refinement/)

## Methods

### PXRD Data Collection

Both RT and temperature-controlled PXRD patterns were recorded using a **PANalytical θ/θ Bragg–Brentano EMPYREAN** diffractometer (CuKα<sub>1+2</sub> radiations) equipped with a **PIXcel1D detector**. The collection methods are as follows:

- **Room Temperature PXRD Patterns:**  
  - **2θ Range:** 5° to 135°  
  - **Step Size:** 0.0131°  
  - **Total Acquisition Time:** Approximately 7h 30m  
  - **Sample Preparation:** Raw powders were dusted through a 63 μm sieve on a glass holder to minimize preferential grain orientation.

- **Temperature-Controlled PXRD Patterns:**  
  - **Temperature Range:** RT to 300°C using a **HTK 900 Anton Paar furnace attachment**  
  - **Sample Holder:** Glass ceramic Macor  
  - **Data Collection Intervals:** 20°C (25–220°C) and 10°C (220–300°C) increments with a heating rate of 5°C/min  
  - **Temperature Stabilization:** 20 minutes before each measurement  
  - **2θ Range:** 10° to 100°  
  - **Step Size:** 0.0131°  
  - **Total Acquisition Time:** 3 hours for each pattern.

### Rietveld Refinement

The **Rietveld refinement method** was employed for both the RT and temperature-controlled PXRD data using the **FullProf** software.

## Directory Structure

The foll

File: 40°C.XY
! Initial file:   D:\ZAKARY_OUAIL\MA_THESE\Deuxième_année_de_thèse\DRX\Manips_DRX\1st_NaTaO2F2_XRK900\NaTaO2F2-Lent_40°C.xrdml
! Initial format:  58
! WAVE (A):      1.54060     1.54060     1.00000
! REM : data have been multiplied by     1.0000
! X_data : 2 Theta (deg.)
! Y_data : Intensity (arb. units)
!     X         Y
!--------------------------------------------------------------------------------
    10.0116     7369
    10.3136     7091
    10.6156     7078
    10.9176     7500
    11.2196    13099
    11.5216     6784
    11.8236     6566
    12.1256     6635
    12.4276     6259
    12.7296     6149
    13.0316     6193
    13.3336     5978
    13.6356     5701
    13.9376     5771
    14.2395     5687
    14.5415     5636
    14.8435     5554
    15.1455     5370
    15.4475     5271
    15.7495     5286
    16.0515     5179
    16.3535     5218
    16.6555     5259
    16.9575     5023
    17.2595     5063
    17.5615     4737
    17.8635     4867
    18.1655     4643
    18.4675     4532
    18.7695     4515
    19.0715     4706
    19.3735     4896
    19.6755    30197
    19.9775     5387
    20.2795     4848
    20.5815     4467
    20.8835     4395
    21.1855     4244
    21.4875     4253
    21.7895     4087
    22.0915     4285
    22.3935    20253
    22.6954     4161
    22.9974     3925
    23.2994     3894
    23.6014     3994
    23.9034     4341
    24.2054    36809
    24.5074    37558
    24.8094     3928
    25.1114     3980
    25.4134     3747
    25.7154     3782
    26.0174     3765
    26.3194     3596
    26.6214     3465
    26.9234     3531
    27.2254     3682
    27.5274     4372
    27.8294    70388
    28.1314     4038
    28.4334     3976
    28.7354     3642
    29.0374     3801
    29.3394    32254
    29.6414     6733
    29.9434     3384
    30.2454     3410
    30.5474     3297
    30.8494     3190
    31.1514     3182
    31.4533     3105
    31.7553     3170
    32.0573     3140
    32.3593     3316
    32.6613     3572
    32.9633    10606
    33.2653    19030
    33.5673     3984
    33.8693    30960
    34.1713     3321
    34.4733     3191
    34.7753     9679
    35.0773     3467
    35.3793     2904
    35.6813     2927
    35.9833     2923
    36.2853     2953
    36.5873     3233
    36.8893     2975
    37.1913     2915
    37.4933    10080
    37.7953     3783
    38.0973     2859
    38.3993     2731
    38.7013     2707
    39.0033     2791
    39.3053     2788
    39.6073     2751
    39.9092     4088
    40.2112     5208
    40.5132     4805
    40.8152     2850
    41.1172    10616
    41.4192    14371
    41.7212     2925
    42.0232     2654
    42.3252     2688
    42.6272     2674
    42.9292     2650
    43.2312     2584
    43.5332     3419
    43.8352     2609
    44.1372     2674
    44.4392     3251
    44.7412     5651
    45.0432     2587
    45.3452     2620
    45.6472     3029
    45.9492     3374
    46.2512     2938
    46.5532     3049
    46.8552     2616
    47.1572     3012
    47.4592     5108
    47.7612     3506
    48.0632    11653
    48.3652     3468
    48.6671     6978
    48.9691     6240
    49.2711     2701
    49.5731     3402
    49.8751     3303
    50.1771    10270
    50.4791     3232
    50.7811     6708
    51.0831     2870
    51.3851     2801
    51.6871     4851
    51.9891     3071
    52.2911     2669
    52.5931     8715
    52.8951     2966
    53.1971     4178
    53.4991     2862
    53.8011     2936
    54.1031     2460
    54.4051     2604
    54.7071     2725
    55.0091     2526
    55.3111     2739
    55.6131     6126
    55.9151     3686
    56.2171     3133
    56.5191     9161
    56.8211     3819
    57.1231     3133
    57.4250     7058
    57.7270     3463
    58.0290     7486
    58.3310     3849
    58.6330     3005
    58.9350     7210
    59.2370     4532
    59.5390     4996
    59.8410    10370
    60.1430     7118
    60.4450     2695
    60.7470     3864
    61.0490     7784
    61.3510     5838
    61.6530     2545
    61.9550     2533
    62.2570     2391
    62.5590     2465
    62.8610     2363
    63.1630     2370
    63.4650     2434
    63.7670     3372
    64.0690     2680
    64.3710     5050
    64.6730     2505
    64.9750     2422
    65.2770     2605
    65.5790     2363
    65.8810     2295
    66.1829     2271
    66.4849     2252
    66.7869     2476
    67.0889     2336
    67.3909     2269
    67.6929     2340
    67.9949     2527
    68.2969     2783
    68.5989     2694
    68.9009     3343
    69.2029     3101
    69.5049     3072
    69.8069     3699
    70.1089     4181
    70.4109     3503
    70.7129     3999
    71.0149     2789
    71.3169     4356
    71.6189     3447
    71.9209     2999
    72.2229     3404
    72.5249     2461
    72.8269     3107
    73.1289     3224
    73.4309     3375
    73.7329     3726
    74.0349     3193
    74.3369     4804
    74.6388     3658
    74.9408     2356
    75.2428     2347
    75.5448     2324
    75.8468     2413
    76.1488     2634
    76.4508     3447
    76.7528     3600
    77.0548     2462
    77.3568     4442
    77.6588     3159
    77.9608     2709
    78.2628     2597
    78.5648     3418
    78.8668     3507
    79.1688     3747
    79.4708     3315
    79.7728     2964
    80.0748     2751
    80.3768     5190
    80.6788     5002
    80.9808     3387
    81.2828     3637
    81.5848     3020
    81.8868     2426
    82.1888     3001
    82.4908     3373
    82.7928     2661
    83.0947     2532
    83.3967     2313
    83.6987     2582
    84.0007     3014
    84.3027     2404
    84.6047     2412
    84.9067     2346
    85.2087     2406
    85.5107     2748
    85.8127     3922
    86.1147     3491
    86.4167     2573
    86.7187     2688
    87.0207     2751
    87.3227     2982
    87.6247     2722
    87.9267     3337
    88.2287     3042
    88.5307     2823
    88.8327     3660
    89.1347     2986
    89.4367     2615
    89.7387     2467
    90.0407     2979
    90.3427     2795
    90.6447     3084
    90.9467     2846
    91.2487     3005
    91.5507     3823
    91.8526     3935
    92.1546     3178
    92.4566     2628
    92.7586     2774
    93.0606     2976
    93.3626     2663
    93.6646     2371
    93.9666     2304
    94.2686     2473
    94.5706     2909
    94.8726     2732
    95.1746     3078
    95.4766     2714
    95.7786     2270
    96.0806     2312
    96.3826     2333
    96.6846     2454
    96.9866     2732
    97.2886     3510
    97.5906     3667
    97.8926     3011
    98.1946     2647
    98.4966     2302
    98.7986     2656
    99.1006     3934
    99.4026     3212
    99.7046     3347
    99.9934     3055

File: 60°C.XY
! Initial file:   D:\ZAKARY_OUAIL\MA_THESE\Deuxième_année_de_thèse\DRX\Manips_DRX\1st_NaTaO2F2_XRK900\NaTaO2F2-Lent_60°C.xrdml
! Initial format:  58
! WAVE (A):      1.54060     1.54060     1.00000
! REM : data have been multiplied by     1.0000
! X_data : 2 Theta (deg.)
! Y_data : Intensity (arb. units)
!     X         Y
!--------------------------------------------------------------------------------
    10.0116     7304
    10.3136     7177
    10.6156     6969
    10.9176     7485
    11.2196    12633
    11.5216     6844
    11.8236     6496
    12.1256     6094
    12.4276     6178
    12.7296     6144
    13.0316     6019
    13.3336     5876
    13.6356     5884
    13.9376     5544
    14.2395     5733
    14.5415     5517
    14.8435     5324
    15.1455     5227
    15.4475     5291
    15.7495     5073
    16.0515     5154
    16.3535     5213
    16.6555     4884
    16.9575     4830
    17.2595     5089
    17.5615     4774
    17.8635     4858
    18.1655     4672
    18.4675     4434
    18.7695     4627
    19.0715     4791
    19.3735     4870
    19.6755    38143
    19.9775     5434
    20.2795     4781
    20.5815     4275
    20.8835     4258
    21.1855     4145
    21.4875     4112
    21.7895     4157
    22.0915     4117
    22.3935    20595
    22.6954     4048
    22.9974     3911
    23.2994     3907
    23.6014     3976
    23.9034     4291
    24.2054    39088
    24.5074    35380
    24.8094     3895
    25.1114     3792
    25.4134     3738
    25.7154     3782
    26.0174     3797
    26.3194     3543
    26.6214     3483
    26.9234     3792
    27.2254     3798
    27.5274     4416
    27.8294    64869
    28.1314     3800
    28.4334     3978
    28.7354     3594
    29.0374     3699
    29.3394    28917
    29.6414     5532
    29.9434     3308
    30.2454     3375
    30.5474     3376
    30.8494     3182
    31.1514     3138
    31.4533     3122
    31.7553     3205
    32.0573     3098
    32.3593     3219
    32.6613     3721
    32.9633     7080
    33.2653    22367
    33.5673     4133
    33.8693    31502
    34.1713     3408
    34.4733     3078
    34.7753    13693
    35.0773     3664
    35.3793     3009
    35.6813     2894
    35.9833     2872
    36.2853     3013
    36.5873     3355
    36.8893     3104
    37.1913     2985
    37.4933     9520
    37.7953     3414
    38.0973     2785
    38.3993     2695
    38.7013     2799
    39.0033     2666
    39.3053     2728
    39.6073     2718
    39.9092     3799
    40.2112     5340
    40.5132     4469
    40.8152     2887
    41.1172    10935
    41.4192    10580
    41.7212     2814
    42.0232     2622
    42.3252     2649
    42.6272     2584
    42.9292     2671
    43.2312     2589
    43.5332     3439
    43.8352     2652
    44.1372     2728
    44.4392     3110
    44.7412     4837
    45.0432     2537
    45.3452     2531
    45.6472     3176
    45.9492     3268
    46.2512     2912
    46.5532     3022
    46.8552     2616
    47.1572     3162
    47.4592     3839
    47.7612     3754
    48.0632    11353
    48.3652     3739
    48.6671     6405
    48.9691     7210
    49.2711     2811
    49.5731     3377
    49.8751     3277
    50.1771    11816
    50.4791     3214
    50.7811     6085
    51.0831     2735
    51.3851     2883
    51.6871     4314
    51.9891     3045
    52.2911     2805
    52.5931     9498
    52.8951     2940
    53.1971     4156
    53.4991     3007
    53.8011     2979
    54.1031     2586
    54.4051     2611
    54.7071     2618
    55.0091     2579
    55.3111     2697
    55.6131    10165
    55.9151     3574
    56.2171     3089
    56.5191    10190
    56.8211     3307
    57.1231     3273
    57.4250     8157
    57.7270     3140
    58.0290     6010
    58.3310     3785
    58.6330     3336
    58.9350    10160
    59.2370     5684
    59.5390     3619
    59.8410    10942
    60.1430     6574
    60.4450     2749
    60.7470     4621
    61.0490     6107
    61.3510     5053
    61.6530     2570
    61.9550     2568
    62.2570     2441
    62.5590     2403
    62.8610     2386
    63.1630     2414
    63.4650     2384
    63.7670     4013
    64.0690     2599
    64.3710     4176
    64.6730     2574
    64.9750     2481
    65.2770     2600
    65.5790     2353
    65.8810     2418
    66.1829     2321
    66.4849     2374
    66.7869     2715
    67.0889     2248
    67.3909     2230
    67.6929     2454
    67.9949     2531
    68.2969     2833
    68.5989     2787
    68.9009     5409
    69.2029     2692
    69.5049     3233
    69.8069     3273
    70.1089     4083
    70.4109     3702
    70.7129     4186
    71.0149     2790
    71.3169     4656
    71.6189     3060
    71.9209     3135
    72.2229     3065
    72.5249     2503
    72.8269     3718
    73.1289     2912
    73.4309     3082
    73.7329     4298
    74.0349     2854
    74.3369     5216
    74.6388     2741
    74.9408     2493
    75.2428     2313
    75.5448     2315
    75.8468     2513
    76.1488     2643
    76.4508     3911
    76.7528     3505
    77.0548     2594
    77.3568     3737
    77.6588     3184
    77.9608     2634
    78.2628     2596
    78.5648     3580
    78.8668     3689
    79.1688     3867
    79.4708     3265
    79.7728     2889
    80.0748     2752
    80.3768     6083
    80.6788     5383
    80.9808     3428
    81.2828     3357
    81.5848     2803
    81.8868     2433
    82.1888     3186
    82.4908     3072
    82.7928     2498
    83.0947     2423
    83.3967     2373
    83.6987     2671
    84.0007     2666
    84.3027     2398
    84.6047     2389
    84.9067     2419
    85.2087     2345
    85.5107     2787
    85.8127     3910
    86.1147     3289
    86.4167     2446
    86.7187     3042
    87.0207     2805
    87.3227     3061
    87.6247     2726
    87.9267     2903
    88.2287     2939
    88.5307     2813
    88.8327     2844
    89.1347     2731
    89.4367     2596
    89.7387     2422
    90.0407     2974
    90.3427     2968
    90.6447     2951
    90.9467     2753
    91.2487     2760
    91.5507     3261
    91.8526     3918
    92.1546     3390
    92.4566     2637
    92.7586     2695
    93.0606     3498
    93.3626     2799
    93.6646     2358
    93.9666     2257
    94.2686     2544
    94.5706     2724
    94.8726     2764
    95.1746     2812
    95.4766     2488
    95.7786     2451
    96.0806     2233
    96.3826     2288
    96.6846     2353
    96.9866     2849
    97.2886     2975
    97.5906     3022
    97.8926     3146
    98.1946     2583
    98.4966     2373
    98.7986     3138
    99.1006     4372
    99.4026     3257
    99.7046     3442
    99.9934     3024

File: 80°C.XY
! Initial file:   D:\ZAKARY_OUAIL\MA_THESE\Deuxième_année_de_thèse\DRX\Manips_DRX\1st_NaTaO2F2_XRK900\NaTaO2F2-Lent_80°C.xrdml
! Initial format:  58
! WAVE (A):      1.54060     1.54060     1.00000
! REM : data have been multiplied by     1.0000
! X_data : 2 Theta (deg.)
! Y_data : Intensity (arb. units)
!     X         Y
!--------------------------------------------------------------------------------
    10.0116     7130
    10.3136     7063
    10.6156     6882
    10.9176     7552
    11.2196    12620
    11.5216     6592
    11.8236     6330
    12.1256     6258
    12.4276     6137
    12.7296     5921
    13.0316     5856
    13.3336     5789
    13.6356     5643
    13.9376     5607
    14.2395     5491
    14.5415     5384
    14.8435     5202
    15.1455     5229
    15.4475     5191
    15.7495     5241
    16.0515     5092
    16.3535     5133
    16.6555     4813
    16.9575     4904
    17.2595     5049
    17.5615     4663
    17.8635     4669
    18.1655     4568
    18.4675     4455
    18.7695     4466
    19.0715     4747
    19.3735     5010
    19.6755    48593
    19.9775     5130
    20.2795     4824
    20.5815     4358
    20.8835     4265
    21.1855     4162
    21.4875     4086
    21.7895     4092
    22.0915     4033
    22.3935    20167
    22.6954     3969
    22.9974     3986
    23.2994     3913
    23.6014     4010
    23.9034     4239
    24.2054    41862
    24.5074    31974
    24.8094     3876
    25.1114     3855
    25.4134     3616
    25.7154     3693
    26.0174     3583
    26.3194     3540
    26.6214     3544
    26.9234     3784
    27.2254     3792
    27.5274     4462
    27.8294    61207
    28.1314     3926
    28.4334     3903
    28.7354     3539
    29.0374     3785
    29.3394    26542
    29.6414     4763
    29.9434     3470
    30.2454     3339
    30.5474     3263
    30.8494     3176
    31.1514     3197
    31.4533     3037
    31.7553     3192
    32.0573     3149
    32.3593     3269
    32.6613     3706
    32.9633     5432
    33.2653    25355
    33.5673     4171
    33.8693    31387
    34.1713     3275
    34.4733     3255
    34.7753    13747
    35.0773     3830
    35.3793     3036
    35.6813     2920
    35.9833     2908
    36.2853     2951
    36.5873     3299
    36.8893     3142
    37.1913     3092
    37.4933     8151
    37.7953     3250
    38.0973     2835
    38.3993     2704
    38.7013     2776
    39.0033     2920
    39.3053     2705
    39.6073     2831
    39.9092     3529
    40.2112     5528
    40.5132     4312
    40.8152     3004
    41.1172     9035
    41.4192     7889
    41.7212     2752
    42.0232     2680
    42.3252     2573
    42.6272     2591
    42.9292     2623
    43.2312     2626
    43.5332     3153
    43.8352     2595
    44.1372     2750
    44.4392     2952
    44.7412     4131
    45.0432     2695
    45.3452     2671
    45.6472     3362
    45.9492     3013
    46.2512     2916
    46.5532     2984
    46.8552     2686
    47.1572     3545
    47.4592     3348
    47.7612     3952
    48.0632     9093
    48.3652     4195
    48.6671     5662
    48.9691     8167
    49.2711     2825
    49.5731     3291
    49.8751     3476
    50.1771    12964
    50.4791     3326
    50.7811     6849
    51.0831     2751
    51.3851     2907
    51.6871     5781
    51.9891     2852
    52.2911     2840
    52.5931    10591
    52.8951     2990
    53.1971     4192
    53.4991     2935
    53.8011     2883
    54.1031     2701
    54.4051     2742
    54.7071     2757
    55.0091     2554
    55.3111     2766
    55.6131    11318
    55.9151     3648
    56.2171     3124
    56.5191     9160
    56.8211     3070
    57.1231     3702
    57.4250     9457
    57.7270     3139
    58.0290     5150
    58.3310     3337
    58.6330     3671
    58.9350    11421
    59.2370     8691
    59.5390     3284
    59.8410     9796
    60.1430     5791
    60.4450     2808
    60.7470     6225
    61.0490     6657
    61.3510     4098
    61.6530     2591
    61.9550     2594
    62.2570     2245
    62.5590     2434
    62.8610     2420
    63.1630     2367
    63.4650     2401
    63.7670     4026
    64.0690     2584
    64.3710     3594
    64.6730     2398
    64.9750     2431
    65.2770     2692
    65.5790     2343
    65.8810     2455
    66.1829     2381
    66.4849     2381
    66.7869     2563
    67.0889     2395
    67.3909     2370
    67.6929     2348
    67.9949     2677
    68.2969     2837
    68.5989     2688
    68.9009     3843
    69.2029     2644
    69.5049     3311
    69.8069     3272
    70.1089     4247
    70.4109     4038
    70.7129     4258
    71.0149     2975
    71.3169     6009
    71.6189     2913
    71.9209     3338
    72.2229     2783
    72.5249     2540
    72.8269     4238
    73.1289     2720
    73.4309     3349
    73.7329     4226
    74.0349     2844
    74.3369     4311
    74.6388     2461
    74.9408     2394
    75.2428     2291
    75.5448     2307
    75.8468     2441
    76.1488     2688
    76.4508     4688
    76.7528     3129
    77.0548     2661
    77.3568     3026
    77.6588     3207
    77.9608     2666
    78.2628     2723
    78.5648     3575
    78.8668     3376
    79.1688     3934
    79.4708     3310
    79.7728     3189
    80.0748     2786
    80.3768     6262
    80.6788     5948
    80.9808     3326
    81.2828     3357
    81.5848     2740
    81.8868     2461
    82.1888     3453
    82.4908     3276
    82.7928     2645
    83.0947     2429
    83.3967     2339
    83.6987     2617
    84.0007     2554
    84.3027     2410
    84.6047     2342
    84.9067     2311
    85.2087     2369
    85.5107     3055
    85.8127     3894
    86.1147     2958
    86.4167     2442
    86.7187     2841
    87.0207     2787
    87.3227     3189
    87.6247     2808
    87.9267     2794
    88.2287     2895
    88.5307     2981
    88.8327     2544
    89.1347     2853
    89.4367     2673
    89.7387     2593
    90.0407     2684
    90.3427     3233
    90.6447     3170
    90.9467     2842
    91.2487     2788
    91.5507     2989
    91.8526     3618
    92.1546     3198
    92.4566     2661
    92.7586     2582
    93.0606     3636
    93.3626     2978
    93.6646     2430
    93.9666     2356
    94.2686     3042
    94.5706     2959
    94.8726     3128
    95.1746     2795
    95.4766     2397
    95.7786     2336
    96.0806     2308
    96.3826     2384
    96.6846     2424
    96.9866     3112
    97.2886     2942
    97.5906     2824
    97.8926     3307
    98.1946     2735
    98.4966     2322
    98.7986     3545
    99.1006     4537
    99.4026     3429
    99.7046     3679
    99.9934     3317