Folder: data-NaMO2F2/powder_X-ray_diffraction/variable-temperature_experiments/NaTaO2F2/raw_data (part 5)

File: 270°C.XY
! Initial file:   D:\ZAKARY_OUAIL\MA_THESE\Deuxième_année_de_thèse\DRX\Manips_DRX\1st_NaTaO2F2_XRK900\NaTaO2F2-Lent_270°C.xrdml
! Initial format:  58
! WAVE (A):      1.54060     1.54060     1.00000
! REM : data have been multiplied by     1.0000
! X_data : 2 Theta (deg.)
! Y_data : Intensity (arb. units)
!     X         Y
!--------------------------------------------------------------------------------
    10.0116     6289
    10.3136     6140
    10.6156     6095
    10.9176     6946
    11.2196     8868
    11.5216     5924
    11.8236     5649
    12.1256     5555
    12.4276     5445
    12.7296     5395
    13.0316     5234
    13.3336     5222
    13.6356     5189
    13.9376     4930
    14.2395     4987
    14.5415     4907
    14.8435     4904
    15.1455     4756
    15.4475     4705
    15.7495     4676
    16.0515     4733
    16.3535     4778
    16.6555     4546
    16.9575     4334
    17.2595     4597
    17.5615     4520
    17.8635     4367
    18.1655     4150
    18.4675     4260
    18.7695     4067
    19.0715     4499
    19.3735     4929
    19.6755   103764
    19.9775     4533
    20.2795     4152
    20.5815     4194
    20.8835     3942
    21.1855     3826
    21.4875     3884
    21.7895     4161
    22.0915     3887
    22.3935    13411
    22.6954     3755
    22.9974     3658
    23.2994     3774
    23.6014     3949
    23.9034     4206
    24.2054    43513
    24.5074     6306
    24.8094     3627
    25.1114     3696
    25.4134     3663
    25.7154     3447
    26.0174     3584
    26.3194     3611
    26.6214     3406
    26.9234     3561
    27.2254     3633
    27.5274     5984
    27.8294    10992
    28.1314     3726
    28.4334     3618
    28.7354     3609
    29.0374     4056
    29.3394    21232
    29.6414     3465
    29.9434     3307
    30.2454     3334
    30.5474     3178
    30.8494     3184
    31.1514     3120
    31.4533     3037
    31.7553     3150
    32.0573     3080
    32.3593     3222
    32.6613    12950
    32.9633     3590
    33.2653    27897
    33.5673    14234
    33.8693    10461
    34.1713     3180
    34.4733     3890
    34.7753     3392
    35.0773     3063
    35.3793     2873
    35.6813     2964
    35.9833     2895
    36.2853     2966
    36.5873     3482
    36.8893     3056
    37.1913     4513
    37.4933     3041
    37.7953     2888
    38.0973     2746
    38.3993     2854
    38.7013     2772
    39.0033     2743
    39.3053     2691
    39.6073     4651
    39.9092     7431
    40.2112     3487
    40.5132     3155
    40.8152     8194
    41.1172    14903
    41.4192     2859
    41.7212     2779
    42.0232     2737
    42.3252     2732
    42.6272     2676
    42.9292     2679
    43.2312     2789
    43.5332     2621
    43.8352     2643
    44.1372     3757
    44.4392     4901
    44.7412     2714
    45.0432     2593
    45.3452     2820
    45.6472     5180
    45.9492     2739
    46.2512     3688
    46.5532     2891
    46.8552     3105
    47.1572     4968
    47.4592     3360
    47.7612    10542
    48.0632     3168
    48.3652    11793
    48.6671    13154
    48.9691     3019
    49.2711     3033
    49.5731     3701
    49.8751    17527
    50.1771     3739
    50.4791     7459
    50.7811     2905
    51.0831     2970
    51.3851     5547
    51.6871     2871
    51.9891     2847
    52.2911     3173
    52.5931     6784
    52.8951     4972
    53.1971     2772
    53.4991     4211
    53.8011     2783
    54.1031     2787
    54.4051     2902
    54.7071     2746
    55.0091     2944
    55.3111     6773
    55.6131     3181
    55.9151     2849
    56.2171     9277
    56.5191     3625
    56.8211     3914
    57.1231     7620
    57.4250     3311
    57.7270     4610
    58.0290     4041
    58.3310     6148
    58.6330     8947
    58.9350     5342
    59.2370     3112
    59.5390     8449
    59.8410    11178
    60.1430     3129
    60.4450     3926
    60.7470    10222
    61.0490     3729
    61.3510     2634
    61.6530     2616
    61.9550     2561
    62.2570     2572
    62.5590     2494
    62.8610     2512
    63.1630     2559
    63.4650     3889
    63.7670     3191
    64.0690     4167
    64.3710     2682
    64.6730     2609
    64.9750     2661
    65.2770     2517
    65.5790     2457
    65.8810     2380
    66.1829     2455
    66.4849     2511
    66.7869     2450
    67.0889     2494
    67.3909     2491
    67.6929     2508
    67.9949     3757
    68.2969     3728
    68.5989     3178
    68.9009     2540
    69.2029     4592
    69.5049     3458
    69.8069     7357
    70.1089     3287
    70.4109     5220
    70.7129     4582
    71.0149     3866
    71.3169     2989
    71.6189     4534
    71.9209     2761
    72.2229     2649
    72.5249     2954
    72.8269     2928
    73.1289     3788
    73.4309     3637
    73.7329     5644
    74.0349     3076
    74.3369     2464
    74.6388     2372
    74.9408     2456
    75.2428     2482
    75.5448     2530
    75.8468     2767
    76.1488     4871
    76.4508     2953
    76.7528     4244
    77.0548     2709
    77.3568     2583
    77.6588     2781
    77.9608     2866
    78.2628     3517
    78.5648     4206
    78.8668     3461
    79.1688     3275
    79.4708     3546
    79.7728     3358
    80.0748     4201
    80.3768     5267
    80.6788     3496
    80.9808     3205
    81.2828     2573
    81.5848     2873
    81.8868     2917
    82.1888     2855
    82.4908     3037
    82.7928     2639
    83.0947     2759
    83.3967     3425
    83.6987     2532
    84.0007     2523
    84.3027     2625
    84.6047     2551
    84.9067     2572
    85.2087     3261
    85.5107     3350
    85.8127     2521
    86.1147     2931
    86.4167     2714
    86.7187     2612
    87.0207     3046
    87.3227     2861
    87.6247     3499
    87.9267     3243
    88.2287     2887
    88.5307     2633
    88.8327     2944
    89.1347     2892
    89.4367     2579
    89.7387     3513
    90.0407     3717
    90.3427     3120
    90.6447     2906
    90.9467     2840
    91.2487     2995
    91.5507     3514
    91.8526     2967
    92.1546     2956
    92.4566     3599
    92.7586     2903
    93.0606     2367
    93.3626     2552
    93.6646     2792
    93.9666     2633
    94.2686     3075
    94.5706     2797
    94.8726     2489
    95.1746     2350
    95.4766     2471
    95.7786     2598
    96.0806     2582
    96.3826     3490
    96.6846     3205
    96.9866     2647
    97.2886     3043
    97.5906     2786
    97.8926     2434
    98.1946     3033
    98.4966     3623
    98.7986     4214
    99.1006     3976
    99.4026     3286
    99.7046     3047
    99.9934     2871

File: 280°C.XY
! Initial file:   D:\ZAKARY_OUAIL\MA_THESE\Deuxième_année_de_thèse\DRX\Manips_DRX\1st_NaTaO2F2_XRK900\NaTaO2F2-Lent_280°C.xrdml
! Initial format:  58
! WAVE (A):      1.54060     1.54060     1.00000
! REM : data have been multiplied by     1.0000
! X_data : 2 Theta (deg.)
! Y_data : Intensity (arb. units)
!     X         Y
!--------------------------------------------------------------------------------
    10.0116     6236
    10.3136     6426
    10.6156     6037
    10.9176     6778
    11.2196     8837
    11.5216     5896
    11.8236     5566
    12.1256     5677
    12.4276     5323
    12.7296     5231
    13.0316     5303
    13.3336     5171
    13.6356     5212
    13.9376     4958
    14.2395     4996
    14.5415     4810
    14.8435     4973
    15.1455     4643
    15.4475     4609
    15.7495     4617
    16.0515     4638
    16.3535     4797
    16.6555     4469
    16.9575     4439
    17.2595     4605
    17.5615     4275
    17.8635     4287
    18.1655     4142
    18.4675     4023
    18.7695     4089
    19.0715     4483
    19.3735     4978
    19.6755   100411
    19.9775     4536
    20.2795     4115
    20.5815     3954
    20.8835     3843
    21.1855     3819
    21.4875     3788
    21.7895     4083
    22.0915     3805
    22.3935    12918
    22.6954     3810
    22.9974     3688
    23.2994     3520
    23.6014     3838
    23.9034     4243
    24.2054    42408
    24.5074     6081
    24.8094     3628
    25.1114     3510
    25.4134     3648
    25.7154     3476
    26.0174     3507
    26.3194     3631
    26.6214     3437
    26.9234     3772
    27.2254     3526
    27.5274     6074
    27.8294     9623
    28.1314     3638
    28.4334     3526
    28.7354     3637
    29.0374     4126
    29.3394    21990
    29.6414     3498
    29.9434     3450
    30.2454     3245
    30.5474     3171
    30.8494     3129
    31.1514     3230
    31.4533     3133
    31.7553     3187
    32.0573     3249
    32.3593     3281
    32.6613    12323
    32.9633     3429
    33.2653    26269
    33.5673    17464
    33.8693    10039
    34.1713     3124
    34.4733     4246
    34.7753     3332
    35.0773     2960
    35.3793     2953
    35.6813     2908
    35.9833     2919
    36.2853     3031
    36.5873     3446
    36.8893     3135
    37.1913     5346
    37.4933     3103
    37.7953     2898
    38.0973     2814
    38.3993     2746
    38.7013     2732
    39.0033     2837
    39.3053     2698
    39.6073     4603
    39.9092     6856
    40.2112     3522
    40.5132     3249
    40.8152     9818
    41.1172    16588
    41.4192     2898
    41.7212     2720
    42.0232     2794
    42.3252     2615
    42.6272     2665
    42.9292     2635
    43.2312     2825
    43.5332     2689
    43.8352     2654
    44.1372     3575
    44.4392     4327
    44.7412     2730
    45.0432     2577
    45.3452     2841
    45.6472     4906
    45.9492     2794
    46.2512     3806
    46.5532     2845
    46.8552     3249
    47.1572     4191
    47.4592     3393
    47.7612    11202
    48.0632     3200
    48.3652    11306
    48.6671    13137
    48.9691     3095
    49.2711     2921
    49.5731     3501
    49.8751    18436
    50.1771     3779
    50.4791     7271
    50.7811     2944
    51.0831     3099
    51.3851     4656
    51.6871     2778
    51.9891     2784
    52.2911     3147
    52.5931     6777
    52.8951     4668
    53.1971     2828
    53.4991     4145
    53.8011     2781
    54.1031     2766
    54.4051     2816
    54.7071     2691
    55.0091     3111
    55.3111     5797
    55.6131     3110
    55.9151     2940
    56.2171     9724
    56.5191     3445
    56.8211     4511
    57.1231     8311
    57.4250     3163
    57.7270     5136
    58.0290     3930
    58.3310     7310
    58.6330     7259
    58.9350     4845
    59.2370     2982
    59.5390     8172
    59.8410    10993
    60.1430     3113
    60.4450     4456
    60.7470     9442
    61.0490     3589
    61.3510     2689
    61.6530     2666
    61.9550     2571
    62.2570     2581
    62.5590     2525
    62.8610     2596
    63.1630     2636
    63.4650     3657
    63.7670     3530
    64.0690     3975
    64.3710     2549
    64.6730     2690
    64.9750     2520
    65.2770     2393
    65.5790     2414
    65.8810     2401
    66.1829     2401
    66.4849     2434
    66.7869     2504
    67.0889     2398
    67.3909     2538
    67.6929     2497
    67.9949     3809
    68.2969     4640
    68.5989     2674
    68.9009     2488
    69.2029     4397
    69.5049     3475
    69.8069     7034
    70.1089     3112
    70.4109     5182
    70.7129     4296
    71.0149     4256
    71.3169     2995
    71.6189     4414
    71.9209     2812
    72.2229     2630
    72.5249     3017
    72.8269     3150
    73.1289     3959
    73.4309     3688
    73.7329     5509
    74.0349     2746
    74.3369     2410
    74.6388     2392
    74.9408     2484
    75.2428     2612
    75.5448     2566
    75.8468     2777
    76.1488     4512
    76.4508     2840
    76.7528     3790
    77.0548     2615
    77.3568     2602
    77.6588     2757
    77.9608     2915
    78.2628     3499
    78.5648     4320
    78.8668     3277
    79.1688     3491
    79.4708     3307
    79.7728     3687
    80.0748     4717
    80.3768     5715
    80.6788     3539
    80.9808     3098
    81.2828     2513
    81.5848     2822
    81.8868     2974
    82.1888     2719
    82.4908     2976
    82.7928     2647
    83.0947     2788
    83.3967     3131
    83.6987     2534
    84.0007     2431
    84.3027     2563
    84.6047     2570
    84.9067     2574
    85.2087     3273
    85.5107     3331
    85.8127     2621
    86.1147     2850
    86.4167     2678
    86.7187     2634
    87.0207     3361
    87.3227     2993
    87.6247     3758
    87.9267     3213
    88.2287     2992
    88.5307     2684
    88.8327     3209
    89.1347     2871
    89.4367     2503
    89.7387     3556
    90.0407     3637
    90.3427     2886
    90.6447     2942
    90.9467     2950
    91.2487     2931
    91.5507     3413
    91.8526     2846
    92.1546     2797
    92.4566     3324
    92.7586     2724
    93.0606     2407
    93.3626     2692
    93.6646     2839
    93.9666     2574
    94.2686     2966
    94.5706     2835
    94.8726     2474
    95.1746     2407
    95.4766     2560
    95.7786     2479
    96.0806     2558
    96.3826     3175
    96.6846     3156
    96.9866     2586
    97.2886     3200
    97.5906     2865
    97.8926     2550
    98.1946     3060
    98.4966     3473
    98.7986     4239
    99.1006     3862
    99.4026     3231
    99.7046     3226
    99.9934     2753

File: 290°C.XY
! Initial file:   D:\ZAKARY_OUAIL\MA_THESE\Deuxième_année_de_thèse\DRX\Manips_DRX\1st_NaTaO2F2_XRK900\NaTaO2F2-Lent_290°C.xrdml
! Initial format:  58
! WAVE (A):      1.54060     1.54060     1.00000
! REM : data have been multiplied by     1.0000
! X_data : 2 Theta (deg.)
! Y_data : Intensity (arb. units)
!     X         Y
!--------------------------------------------------------------------------------
    10.0116     6293
    10.3136     6224
    10.6156     5816
    10.9176     6692
    11.2196     8940
    11.5216     5785
    11.8236     5625
    12.1256     5626
    12.4276     5590
    12.7296     5340
    13.0316     5111
    13.3336     5166
    13.6356     5183
    13.9376     5024
    14.2395     5006
    14.5415     4793
    14.8435     4742
    15.1455     4745
    15.4475     4635
    15.7495     4636
    16.0515     4581
    16.3535     4678
    16.6555     4520
    16.9575     4650
    17.2595     4608
    17.5615     4304
    17.8635     4343
    18.1655     4215
    18.4675     4205
    18.7695     4090
    19.0715     4570
    19.3735     4901
    19.6755    97997
    19.9775     4561
    20.2795     4067
    20.5815     3824
    20.8835     3945
    21.1855     3899
    21.4875     3679
    21.7895     4075
    22.0915     3911
    22.3935    12443
    22.6954     3789
    22.9974     3684
    23.2994     3702
    23.6014     3881
    23.9034     4270
    24.2054    42851
    24.5074     5908
    24.8094     3671
    25.1114     3620
    25.4134     3645
    25.7154     3344
    26.0174     3393
    26.3194     3623
    26.6214     3503
    26.9234     3644
    27.2254     3632
    27.5274     6250
    27.8294     8679
    28.1314     3614
    28.4334     3611
    28.7354     3481
    29.0374     4096
    29.3394    22605
    29.6414     3502
    29.9434     3384
    30.2454     3336
    30.5474     3207
    30.8494     3216
    31.1514     3186
    31.4533     3106
    31.7553     3106
    32.0573     3151
    32.3593     3332
    32.6613    12825
    32.9633     3620
    33.2653    25581
    33.5673    20860
    33.8693     9614
    34.1713     3154
    34.4733     4532
    34.7753     3217
    35.0773     2974
    35.3793     2917
    35.6813     2911
    35.9833     2937
    36.2853     2992
    36.5873     3597
    36.8893     3146
    37.1913     6267
    37.4933     3166
    37.7953     2826
    38.0973     2755
    38.3993     2811
    38.7013     2776
    39.0033     2884
    39.3053     2763
    39.6073     4749
    39.9092     6228
    40.2112     3618
    40.5132     3129
    40.8152    11106
    41.1172    16495
    41.4192     2902
    41.7212     2742
    42.0232     2767
    42.3252     2642
    42.6272     2698
    42.9292     2687
    43.2312     2864
    43.5332     2621
    43.8352     2776
    44.1372     3450
    44.4392     3950
    44.7412     2719
    45.0432     2644
    45.3452     2823
    45.6472     4959
    45.9492     2764
    46.2512     3715
    46.5532     2965
    46.8552     3290
    47.1572     3680
    47.4592     3577
    47.7612    12131
    48.0632     3141
    48.3652    11136
    48.6671    12550
    48.9691     2981
    49.2711     3052
    49.5731     3666
    49.8751    18884
    50.1771     3908
    50.4791     6411
    50.7811     2952
    51.0831     3224
    51.3851     4162
    51.6871     2823
    51.9891     2895
    52.2911     3207
    52.5931     6776
    52.8951     4603
    53.1971     2867
    53.4991     4138
    53.8011     2793
    54.1031     2901
    54.4051     2798
    54.7071     2720
    55.0091     3006
    55.3111     5798
    55.6131     2919
    55.9151     2903
    56.2171    10333
    56.5191     3308
    56.8211     5258
    57.1231     8089
    57.4250     3148
    57.7270     5824
    58.0290     4059
    58.3310     8470
    58.6330     5754
    58.9350     5267
    59.2370     3064
    59.5390     7135
    59.8410    10808
    60.1430     3138
    60.4450     4914
    60.7470     8090
    61.0490     3748
    61.3510     2698
    61.6530     2622
    61.9550     2595
    62.2570     2511
    62.5590     2447
    62.8610     2533
    63.1630     2696
    63.4650     3389
    63.7670     3842
    64.0690     3956
    64.3710     2553
    64.6730     2826
    64.9750     2579
    65.2770     2429
    65.5790     2501
    65.8810     2386
    66.1829     2481
    66.4849     2456
    66.7869     2478
    67.0889     2387
    67.3909     2578
    67.6929     2543
    67.9949     4065
    68.2969     5170
    68.5989     2735
    68.9009     2538
    69.2029     4264
    69.5049     3119
    69.8069     6483
    70.1089     3097
    70.4109     5235
    70.7129     3971
    71.0149     5007
    71.3169     2913
    71.6189     4111
    71.9209     2646
    72.2229     2782
    72.5249     3130
    72.8269     3518
    73.1289     4251
    73.4309     3483
    73.7329     4651
    74.0349     2773
    74.3369     2596
    74.6388     2467
    74.9408     2402
    75.2428     2515
    75.5448     2588
    75.8468     2776
    76.1488     4350
    76.4508     2836
    76.7528     3284
    77.0548     2578
    77.3568     2629
    77.6588     2774
    77.9608     2843
    78.2628     3527
    78.5648     4480
    78.8668     3115
    79.1688     3842
    79.4708     3289
    79.7728     4183
    80.0748     5172
    80.3768     5521
    80.6788     3581
    80.9808     3036
    81.2828     2550
    81.5848     3317
    81.8868     3156
    82.1888     2715
    82.4908     2859
    82.7928     2479
    83.0947     2852
    83.3967     2880
    83.6987     2551
    84.0007     2457
    84.3027     2719
    84.6047     2546
    84.9067     2658
    85.2087     3537
    85.5107     3128
    85.8127     2569
    86.1147     2591
    86.4167     2681
    86.7187     2702
    87.0207     3481
    87.3227     2885
    87.6247     3438
    87.9267     3388
    88.2287     3099
    88.5307     2566
    88.8327     3344
    89.1347     3101
    89.4367     2522
    89.7387     3671
    90.0407     3459
    90.3427     2691
    90.6447     3105
    90.9467     2976
    91.2487     2942
    91.5507     3159
    91.8526     2872
    92.1546     2979
    92.4566     3025
    92.7586     2680
    93.0606     2439
    93.3626     2729
    93.6646     2936
    93.9666     2675
    94.2686     2977
    94.5706     2765
    94.8726     2543
    95.1746     2490
    95.4766     2464
    95.7786     2543
    96.0806     2506
    96.3826     3241
    96.6846     2972
    96.9866     2482
    97.2886     3415
    97.5906     2912
    97.8926     2539
    98.1946     2959
    98.4966     3312
    98.7986     4359
    99.1006     3563
    99.4026     3141
    99.7046     3443
    99.9934     2817