Folder: data-NaMO2F2/powder_X-ray_diffraction/variable-temperature_experiments/NaTaO2F2/raw_data (part 4)

File: 240°C.XY
! Initial file:   D:\ZAKARY_OUAIL\MA_THESE\Deuxième_année_de_thèse\DRX\Manips_DRX\1st_NaTaO2F2_XRK900\NaTaO2F2-Lent_240°C.xrdml
! Initial format:  58
! WAVE (A):      1.54060     1.54060     1.00000
! REM : data have been multiplied by     1.0000
! X_data : 2 Theta (deg.)
! Y_data : Intensity (arb. units)
!     X         Y
!--------------------------------------------------------------------------------
    10.0116     6552
    10.3136     6297
    10.6156     6367
    10.9176     6854
    11.2196     9648
    11.5216     5939
    11.8236     5712
    12.1256     5793
    12.4276     5559
    12.7296     5424
    13.0316     5486
    13.3336     5367
    13.6356     5201
    13.9376     5115
    14.2395     5009
    14.5415     4963
    14.8435     4811
    15.1455     4727
    15.4475     4698
    15.7495     4721
    16.0515     4766
    16.3535     4881
    16.6555     4615
    16.9575     4471
    17.2595     4657
    17.5615     4434
    17.8635     4325
    18.1655     4243
    18.4675     4229
    18.7695     4120
    19.0715     4579
    19.3735     4790
    19.6755   115410
    19.9775     4598
    20.2795     4201
    20.5815     4119
    20.8835     4081
    21.1855     3910
    21.4875     3831
    21.7895     4011
    22.0915     3982
    22.3935    16011
    22.6954     3633
    22.9974     3743
    23.2994     3668
    23.6014     3947
    23.9034     4176
    24.2054    45129
    24.5074     8223
    24.8094     3619
    25.1114     3639
    25.4134     3658
    25.7154     3614
    26.0174     3469
    26.3194     3597
    26.6214     3257
    26.9234     3696
    27.2254     3594
    27.5274     5325
    27.8294    16271
    28.1314     3688
    28.4334     3606
    28.7354     3557
    29.0374     4022
    29.3394    20258
    29.6414     3509
    29.9434     3482
    30.2454     3229
    30.5474     3310
    30.8494     3196
    31.1514     3110
    31.4533     3092
    31.7553     3162
    32.0573     3042
    32.3593     3324
    32.6613    21061
    32.9633     3547
    33.2653    30247
    33.5673     7638
    33.8693    10750
    34.1713     3265
    34.4733     3532
    34.7753     3650
    35.0773     3073
    35.3793     2930
    35.6813     2839
    35.9833     2966
    36.2853     2968
    36.5873     3497
    36.8893     3134
    37.1913     3572
    37.4933     3102
    37.7953     2958
    38.0973     2801
    38.3993     2797
    38.7013     2818
    39.0033     2638
    39.3053     2797
    39.6073     4419
    39.9092     6958
    40.2112     3298
    40.5132     3236
    40.8152     4866
    41.1172    10077
    41.4192     2968
    41.7212     2746
    42.0232     2684
    42.3252     2742
    42.6272     2773
    42.9292     2724
    43.2312     2666
    43.5332     2637
    43.8352     2651
    44.1372     4176
    44.4392     5428
    44.7412     2688
    45.0432     2653
    45.3452     2802
    45.6472     7289
    45.9492     2733
    46.2512     3447
    46.5532     2923
    46.8552     2955
    47.1572     5946
    47.4592     3257
    47.7612    12472
    48.0632     3180
    48.3652    13444
    48.6671     8912
    48.9691     3080
    49.2711     2899
    49.5731     3547
    49.8751    11514
    50.1771     4130
    50.4791     6381
    50.7811     2917
    51.0831     2916
    51.3851     5124
    51.6871     2978
    51.9891     2811
    52.2911     3121
    52.5931     6084
    52.8951     6419
    53.1971     2729
    53.4991     4100
    53.8011     2695
    54.1031     2727
    54.4051     2885
    54.7071     2673
    55.0091     2873
    55.3111    11394
    55.6131     3569
    55.9151     2882
    56.2171     8359
    56.5191     3898
    56.8211     3271
    57.1231     6784
    57.4250     3962
    57.7270     3740
    58.0290     5233
    58.3310     3714
    58.6330     9201
    58.9350     9518
    59.2370     3128
    59.5390     6690
    59.8410    10820
    60.1430     3182
    60.4450     3386
    60.7470     8681
    61.0490     4761
    61.3510     2578
    61.6530     2570
    61.9550     2538
    62.2570     2498
    62.5590     2430
    62.8610     2587
    63.1630     2538
    63.4650     3716
    63.7670     2915
    64.0690     3896
    64.3710     2688
    64.6730     2546
    64.9750     2698
    65.2770     2468
    65.5790     2388
    65.8810     2438
    66.1829     2423
    66.4849     2436
    66.7869     2495
    67.0889     2379
    67.3909     2384
    67.6929     2402
    67.9949     3639
    68.2969     2881
    68.5989     3378
    68.9009     2551
    69.2029     4210
    69.5049     3288
    69.8069     7411
    70.1089     3884
    70.4109     4816
    70.7129     4562
    71.0149     3796
    71.3169     3645
    71.6189     4629
    71.9209     3120
    72.2229     2504
    72.5249     3450
    72.8269     2594
    73.1289     3060
    73.4309     3236
    73.7329     4540
    74.0349     3937
    74.3369     2504
    74.6388     2361
    74.9408     2375
    75.2428     2461
    75.5448     2568
    75.8468     2629
    76.1488     4277
    76.4508     3430
    76.7528     4128
    77.0548     3462
    77.3568     2488
    77.6588     2649
    77.9608     2732
    78.2628     3467
    78.5648     4480
    78.8668     3494
    79.1688     2732
    79.4708     3275
    79.7728     2946
    80.0748     3645
    80.3768     4480
    80.6788     3800
    80.9808     3492
    81.2828     2755
    81.5848     2666
    81.8868     3401
    82.1888     2848
    82.4908     3604
    82.7928     2646
    83.0947     2619
    83.3967     3049
    83.6987     2920
    84.0007     2449
    84.3027     2547
    84.6047     2513
    84.9067     2422
    85.2087     3226
    85.5107     3736
    85.8127     2815
    86.1147     2861
    86.4167     2721
    86.7187     3069
    87.0207     2831
    87.3227     2665
    87.6247     2945
    87.9267     2936
    88.2287     3453
    88.5307     2848
    88.8327     2663
    89.1347     2812
    89.4367     2694
    89.7387     3247
    90.0407     3753
    90.3427     3212
    90.6447     2821
    90.9467     2871
    91.2487     3351
    91.5507     4433
    91.8526     3523
    92.1546     3023
    92.4566     3306
    92.7586     2863
    93.0606     2563
    93.3626     2370
    93.6646     3165
    93.9666     2934
    94.2686     2669
    94.5706     2849
    94.8726     2609
    95.1746     2402
    95.4766     2465
    95.7786     2443
    96.0806     2448
    96.3826     2929
    96.6846     3482
    96.9866     2812
    97.2886     2672
    97.5906     2606
    97.8926     2546
    98.1946     2696
    98.4966     3822
    98.7986     3621
    99.1006     4344
    99.4026     3448
    99.7046     2700
    99.9934     2822

File: 250°C.XY
! Initial file:   D:\ZAKARY_OUAIL\MA_THESE\Deuxième_année_de_thèse\DRX\Manips_DRX\1st_NaTaO2F2_XRK900\NaTaO2F2-Lent_250°C.xrdml
! Initial format:  58
! WAVE (A):      1.54060     1.54060     1.00000
! REM : data have been multiplied by     1.0000
! X_data : 2 Theta (deg.)
! Y_data : Intensity (arb. units)
!     X         Y
!--------------------------------------------------------------------------------
    10.0116     6413
    10.3136     6163
    10.6156     6201
    10.9176     6738
    11.2196     9527
    11.5216     5947
    11.8236     5902
    12.1256     5575
    12.4276     5539
    12.7296     5500
    13.0316     5317
    13.3336     5242
    13.6356     5224
    13.9376     4958
    14.2395     4979
    14.5415     4894
    14.8435     4967
    15.1455     4857
    15.4475     4730
    15.7495     4711
    16.0515     4644
    16.3535     4791
    16.6555     4594
    16.9575     4519
    17.2595     4589
    17.5615     4392
    17.8635     4370
    18.1655     4297
    18.4675     4057
    18.7695     4225
    19.0715     4451
    19.3735     4849
    19.6755   109574
    19.9775     4521
    20.2795     4373
    20.5815     4138
    20.8835     3892
    21.1855     3916
    21.4875     3772
    21.7895     4255
    22.0915     3886
    22.3935    15353
    22.6954     3744
    22.9974     3578
    23.2994     3626
    23.6014     3899
    23.9034     4052
    24.2054    45426
    24.5074     7323
    24.8094     3758
    25.1114     3573
    25.4134     3645
    25.7154     3493
    26.0174     3506
    26.3194     3542
    26.6214     3476
    26.9234     3610
    27.2254     3709
    27.5274     5692
    27.8294    14236
    28.1314     3708
    28.4334     3640
    28.7354     3523
    29.0374     3889
    29.3394    20533
    29.6414     3508
    29.9434     3390
    30.2454     3239
    30.5474     3216
    30.8494     3155
    31.1514     3114
    31.4533     3098
    31.7553     3211
    32.0573     3142
    32.3593     3244
    32.6613    18148
    32.9633     3617
    33.2653    29755
    33.5673     9108
    33.8693    11068
    34.1713     3193
    34.4733     3627
    34.7753     3546
    35.0773     3047
    35.3793     2883
    35.6813     3041
    35.9833     2959
    36.2853     2893
    36.5873     3544
    36.8893     3074
    37.1913     3798
    37.4933     3093
    37.7953     2944
    38.0973     2756
    38.3993     2645
    38.7013     2822
    39.0033     2783
    39.3053     2792
    39.6073     4380
    39.9092     7713
    40.2112     3383
    40.5132     3189
    40.8152     5665
    41.1172    10824
    41.4192     3031
    41.7212     2899
    42.0232     2720
    42.3252     2676
    42.6272     2705
    42.9292     2748
    43.2312     2705
    43.5332     2653
    43.8352     2718
    44.1372     4125
    44.4392     5621
    44.7412     2605
    45.0432     2703
    45.3452     2808
    45.6472     6752
    45.9492     2738
    46.2512     3447
    46.5532     2844
    46.8552     2964
    47.1572     6028
    47.4592     3286
    47.7612    10846
    48.0632     3143
    48.3652    13087
    48.6671    10638
    48.9691     3078
    49.2711     2935
    49.5731     3502
    49.8751    13681
    50.1771     3936
    50.4791     6573
    50.7811     2884
    51.0831     3061
    51.3851     5787
    51.6871     3031
    51.9891     2862
    52.2911     3119
    52.5931     6318
    52.8951     5879
    53.1971     2729
    53.4991     4085
    53.8011     2798
    54.1031     2738
    54.4051     2922
    54.7071     2651
    55.0091     2906
    55.3111    10390
    55.6131     3457
    55.9151     2902
    56.2171     8422
    56.5191     3801
    56.8211     3367
    57.1231     7003
    57.4250     3748
    57.7270     3802
    58.0290     4704
    58.3310     4382
    58.6330     9768
    58.9350     8325
    59.2370     3207
    59.5390     7571
    59.8410    10920
    60.1430     3036
    60.4450     3539
    60.7470     9585
    61.0490     4061
    61.3510     2709
    61.6530     2531
    61.9550     2583
    62.2570     2551
    62.5590     2499
    62.8610     2530
    63.1630     2524
    63.4650     3918
    63.7670     2841
    64.0690     4208
    64.3710     2679
    64.6730     2561
    64.9750     2713
    65.2770     2415
    65.5790     2462
    65.8810     2438
    66.1829     2304
    66.4849     2569
    66.7869     2461
    67.0889     2371
    67.3909     2464
    67.6929     2466
    67.9949     3588
    68.2969     3016
    68.5989     3769
    68.9009     2497
    69.2029     4549
    69.5049     3408
    69.8069     7233
    70.1089     3545
    70.4109     4997
    70.7129     4693
    71.0149     3676
    71.3169     3497
    71.6189     4595
    71.9209     3170
    72.2229     2604
    72.5249     3016
    72.8269     2744
    73.1289     3258
    73.4309     3375
    73.7329     5338
    74.0349     3946
    74.3369     2489
    74.6388     2485
    74.9408     2336
    75.2428     2518
    75.5448     2567
    75.8468     2578
    76.1488     4687
    76.4508     3139
    76.7528     4322
    77.0548     3182
    77.3568     2546
    77.6588     2624
    77.9608     2804
    78.2628     3602
    78.5648     4512
    78.8668     3433
    79.1688     2981
    79.4708     3495
    79.7728     3121
    80.0748     3741
    80.3768     4640
    80.6788     3768
    80.9808     3300
    81.2828     2698
    81.5848     2624
    81.8868     3140
    82.1888     2833
    82.4908     3474
    82.7928     2769
    83.0947     2748
    83.3967     3291
    83.6987     2787
    84.0007     2451
    84.3027     2564
    84.6047     2443
    84.9067     2519
    85.2087     3186
    85.5107     3579
    85.8127     2698
    86.1147     3120
    86.4167     2836
    86.7187     2936
    87.0207     2700
    87.3227     2709
    87.6247     3146
    87.9267     2987
    88.2287     3003
    88.5307     2744
    88.8327     2803
    89.1347     2704
    89.4367     2605
    89.7387     3437
    90.0407     3804
    90.3427     3411
    90.6447     3066
    90.9467     2894
    91.2487     3326
    91.5507     4264
    91.8526     3236
    92.1546     2933
    92.4566     3606
    92.7586     2955
    93.0606     2459
    93.3626     2445
    93.6646     2971
    93.9666     2769
    94.2686     2739
    94.5706     2952
    94.8726     2537
    95.1746     2339
    95.4766     2418
    95.7786     2509
    96.0806     2497
    96.3826     3238
    96.6846     3333
    96.9866     2847
    97.2886     2810
    97.5906     2784
    97.8926     2607
    98.1946     2771
    98.4966     3792
    98.7986     3885
    99.1006     4292
    99.4026     3355
    99.7046     2878
    99.9934     2995

File: 260°C.XY
! Initial file:   D:\ZAKARY_OUAIL\MA_THESE\Deuxième_année_de_thèse\DRX\Manips_DRX\1st_NaTaO2F2_XRK900\NaTaO2F2-Lent_260°C.xrdml
! Initial format:  58
! WAVE (A):      1.54060     1.54060     1.00000
! REM : data have been multiplied by     1.0000
! X_data : 2 Theta (deg.)
! Y_data : Intensity (arb. units)
!     X         Y
!--------------------------------------------------------------------------------
    10.0116     6282
    10.3136     6248
    10.6156     5934
    10.9176     6707
    11.2196     9668
    11.5216     5943
    11.8236     5755
    12.1256     5638
    12.4276     5384
    12.7296     5412
    13.0316     5303
    13.3336     5227
    13.6356     5102
    13.9376     5017
    14.2395     4890
    14.5415     4823
    14.8435     4948
    15.1455     4788
    15.4475     4669
    15.7495     4567
    16.0515     4688
    16.3535     4779
    16.6555     4488
    16.9575     4529
    17.2595     4518
    17.5615     4328
    17.8635     4293
    18.1655     4216
    18.4675     4293
    18.7695     4148
    19.0715     4462
    19.3735     4938
    19.6755   106350
    19.9775     4495
    20.2795     4136
    20.5815     3962
    20.8835     3962
    21.1855     3836
    21.4875     3840
    21.7895     4137
    22.0915     4005
    22.3935    14610
    22.6954     3844
    22.9974     3615
    23.2994     3743
    23.6014     3879
    23.9034     4187
    24.2054    44783
    24.5074     6707
    24.8094     3621
    25.1114     3685
    25.4134     3600
    25.7154     3517
    26.0174     3570
    26.3194     3564
    26.6214     3376
    26.9234     3622
    27.2254     3725
    27.5274     5825
    27.8294    12462
    28.1314     3638
    28.4334     3645
    28.7354     3410
    29.0374     3961
    29.3394    20622
    29.6414     3552
    29.9434     3382
    30.2454     3329
    30.5474     3166
    30.8494     3139
    31.1514     3193
    31.4533     3019
    31.7553     3070
    32.0573     3134
    32.3593     3262
    32.6613    15153
    32.9633     3539
    33.2653    29370
    33.5673    11381
    33.8693    10882
    34.1713     3316
    34.4733     3731
    34.7753     3505
    35.0773     3058
    35.3793     3061
    35.6813     2947
    35.9833     3066
    36.2853     2988
    36.5873     3515
    36.8893     3056
    37.1913     4059
    37.4933     3177
    37.7953     2781
    38.0973     2740
    38.3993     2822
    38.7013     2815
    39.0033     2774
    39.3053     2770
    39.6073     4794
    39.9092     8036
    40.2112     3440
    40.5132     3128
    40.8152     6750
    41.1172    12883
    41.4192     2853
    41.7212     2747
    42.0232     2660
    42.3252     2742
    42.6272     2689
    42.9292     2791
    43.2312     2739
    43.5332     2700
    43.8352     2689
    44.1372     3950
    44.4392     5451
    44.7412     2736
    45.0432     2716
    45.3452     2788
    45.6472     5615
    45.9492     2784
    46.2512     3678
    46.5532     2895
    46.8552     2994
    47.1572     5677
    47.4592     3298
    47.7612    10067
    48.0632     3267
    48.3652    12223
    48.6671    12063
    48.9691     3056
    49.2711     3007
    49.5731     3601
    49.8751    15767
    50.1771     3836
    50.4791     6909
    50.7811     2915
    51.0831     2954
    51.3851     6141
    51.6871     2836
    51.9891     2910
    52.2911     3073
    52.5931     6471
    52.8951     5454
    53.1971     2736
    53.4991     4057
    53.8011     2861
    54.1031     2761
    54.4051     2814
    54.7071     2828
    55.0091     2990
    55.3111     8368
    55.6131     3374
    55.9151     2851
    56.2171     8786
    56.5191     3740
    56.8211     3690
    57.1231     7448
    57.4250     3505
    57.7270     4129
    58.0290     4424
    58.3310     5027
    58.6330     9610
    58.9350     6345
    59.2370     3148
    59.5390     8028
    59.8410    11293
    60.1430     3146
    60.4450     3713
    60.7470    10319
    61.0490     3749
    61.3510     2609
    61.6530     2583
    61.9550     2647
    62.2570     2497
    62.5590     2457
    62.8610     2540
    63.1630     2576
    63.4650     4083
    63.7670     2844
    64.0690     4247
    64.3710     2740
    64.6730     2678
    64.9750     2616
    65.2770     2462
    65.5790     2504
    65.8810     2400
    66.1829     2329
    66.4849     2495
    66.7869     2484
    67.0889     2485
    67.3909     2446
    67.6929     2477
    67.9949     3713
    68.2969     3232
    68.5989     3482
    68.9009     2461
    69.2029     4555
    69.5049     3529
    69.8069     7343
    70.1089     3369
    70.4109     5207
    70.7129     4770
    71.0149     3650
    71.3169     3440
    71.6189     4595
    71.9209     2991
    72.2229     2583
    72.5249     2847
    72.8269     2832
    73.1289     3577
    73.4309     3764
    73.7329     5849
    74.0349     3463
    74.3369     2467
    74.6388     2428
    74.9408     2441
    75.2428     2407
    75.5448     2633
    75.8468     2677
    76.1488     4882
    76.4508     3176
    76.7528     4491
    77.0548     2883
    77.3568     2542
    77.6588     2658
    77.9608     2914
    78.2628     3416
    78.5648     4293
    78.8668     3342
    79.1688     3001
    79.4708     3513
    79.7728     3143
    80.0748     3833
    80.3768     4665
    80.6788     3602
    80.9808     3431
    81.2828     2648
    81.5848     2678
    81.8868     2948
    82.1888     2738
    82.4908     3381
    82.7928     2614
    83.0947     2823
    83.3967     3446
    83.6987     2824
    84.0007     2367
    84.3027     2562
    84.6047     2439
    84.9067     2605
    85.2087     3379
    85.5107     3304
    85.8127     2653
    86.1147     3103
    86.4167     2727
    86.7187     2793
    87.0207     2856
    87.3227     2773
    87.6247     3253
    87.9267     3157
    88.2287     2860
    88.5307     2658
    88.8327     2813
    89.1347     2816
    89.4367     2654
    89.7387     3423
    90.0407     3723
    90.3427     3583
    90.6447     3075
    90.9467     2887
    91.2487     3141
    91.5507     3971
    91.8526     3028
    92.1546     2994
    92.4566     3784
    92.7586     3050
    93.0606     2427
    93.3626     2539
    93.6646     2749
    93.9666     2638
    94.2686     2958
    94.5706     2797
    94.8726     2504
    95.1746     2475
    95.4766     2379
    95.7786     2521
    96.0806     2542
    96.3826     3599
    96.6846     3232
    96.9866     2748
    97.2886     2914
    97.5906     2755
    97.8926     2496
    98.1946     2983
    98.4966     3723
    98.7986     3904
    99.1006     4210
    99.4026     3395
    99.7046     2875
    99.9934     2945