Folder: data-NaMO2F2/powder_X-ray_diffraction/variable-temperature_experiments/NaTaO2F2/raw_data (part 6)

File: 300°C.XY
! Initial file:   D:\ZAKARY_OUAIL\MA_THESE\Deuxième_année_de_thèse\DRX\Manips_DRX\1st_NaTaO2F2_XRK900\NaTaO2F2-Lent_300°C.xrdml
! Initial format:  58
! WAVE (A):      1.54060     1.54060     1.00000
! REM : data have been multiplied by     1.0000
! X_data : 2 Theta (deg.)
! Y_data : Intensity (arb. units)
!     X         Y
!--------------------------------------------------------------------------------
    10.0116     6326
    10.3136     6089
    10.6156     6065
    10.9176     6518
    11.2196     9112
    11.5216     5930
    11.8236     5636
    12.1256     5526
    12.4276     5475
    12.7296     5226
    13.0316     5248
    13.3336     5089
    13.6356     5020
    13.9376     4798
    14.2395     4924
    14.5415     4871
    14.8435     4773
    15.1455     4676
    15.4475     4765
    15.7495     4563
    16.0515     4635
    16.3535     4635
    16.6555     4342
    16.9575     4576
    17.2595     4479
    17.5615     4258
    17.8635     4359
    18.1655     4233
    18.4675     3925
    18.7695     4129
    19.0715     4524
    19.3735     5053
    19.6755    92848
    19.9775     4373
    20.2795     4055
    20.5815     3998
    20.8835     3921
    21.1855     3722
    21.4875     3784
    21.7895     4029
    22.0915     3772
    22.3935    12140
    22.6954     3771
    22.9974     3659
    23.2994     3645
    23.6014     3925
    23.9034     4026
    24.2054    42317
    24.5074     5663
    24.8094     3797
    25.1114     3546
    25.4134     3600
    25.7154     3569
    26.0174     3557
    26.3194     3600
    26.6214     3476
    26.9234     3638
    27.2254     3735
    27.5274     6646
    27.8294     8035
    28.1314     3661
    28.4334     3581
    28.7354     3404
    29.0374     4118
    29.3394    23025
    29.6414     3472
    29.9434     3428
    30.2454     3433
    30.5474     3090
    30.8494     3238
    31.1514     3142
    31.4533     3114
    31.7553     3104
    32.0573     3107
    32.3593     3345
    32.6613    13413
    32.9633     3609
    33.2653    24947
    33.5673    24221
    33.8693     9224
    34.1713     3290
    34.4733     5465
    34.7753     3101
    35.0773     2992
    35.3793     2889
    35.6813     2934
    35.9833     2925
    36.2853     3017
    36.5873     3474
    36.8893     3002
    37.1913     7673
    37.4933     3317
    37.7953     2841
    38.0973     2851
    38.3993     2656
    38.7013     2771
    39.0033     2841
    39.3053     2767
    39.6073     4373
    39.9092     5607
    40.2112     3771
    40.5132     3169
    40.8152    11288
    41.1172    14863
    41.4192     2862
    41.7212     2738
    42.0232     2766
    42.3252     2642
    42.6272     2658
    42.9292     2722
    43.2312     2916
    43.5332     2660
    43.8352     2722
    44.1372     3391
    44.4392     3907
    44.7412     2769
    45.0432     2743
    45.3452     2828
    45.6472     5346
    45.9492     2751
    46.2512     3891
    46.5532     2883
    46.8552     3555
    47.1572     3436
    47.4592     3594
    47.7612    12036
    48.0632     3281
    48.3652    10309
    48.6671    11310
    48.9691     3006
    49.2711     3070
    49.5731     3639
    49.8751    18099
    50.1771     4121
    50.4791     5477
    50.7811     2957
    51.0831     3528
    51.3851     3882
    51.6871     2771
    51.9891     2743
    52.2911     3119
    52.5931     6767
    52.8951     4641
    53.1971     2785
    53.4991     4132
    53.8011     2797
    54.1031     3088
    54.4051     2700
    54.7071     2760
    55.0091     3002
    55.3111     6412
    55.6131     3047
    55.9151     2923
    56.2171    11024
    56.5191     3310
    56.8211     6353
    57.1231     8157
    57.4250     3068
    57.7270     6481
    58.0290     3935
    58.3310     8713
    58.6330     5035
    58.9350     5911
    59.2370     2987
    59.5390     6405
    59.8410    10178
    60.1430     3178
    60.4450     5808
    60.7470     6964
    61.0490     3618
    61.3510     2655
    61.6530     2681
    61.9550     2521
    62.2570     2606
    62.5590     2588
    62.8610     2630
    63.1630     2597
    63.4650     3187
    63.7670     4189
    64.0690     3988
    64.3710     2527
    64.6730     2768
    64.9750     2520
    65.2770     2506
    65.5790     2485
    65.8810     2414
    66.1829     2458
    66.4849     2571
    66.7869     2479
    67.0889     2438
    67.3909     2459
    67.6929     2445
    67.9949     3999
    68.2969     4716
    68.5989     2628
    68.9009     2610
    69.2029     3944
    69.5049     3032
    69.8069     5809
    70.1089     3053
    70.4109     5213
    70.7129     3775
    71.0149     5131
    71.3169     2926
    71.6189     3606
    71.9209     2712
    72.2229     2907
    72.5249     3319
    72.8269     3857
    73.1289     4034
    73.4309     3235
    73.7329     3906
    74.0349     2601
    74.3369     2550
    74.6388     2355
    74.9408     2473
    75.2428     2491
    75.5448     2554
    75.8468     2969
    76.1488     3957
    76.4508     2839
    76.7528     3288
    77.0548     2595
    77.3568     2671
    77.6588     2829
    77.9608     2920
    78.2628     3631
    78.5648     4470
    78.8668     2938
    79.1688     3976
    79.4708     3105
    79.7728     4822
    80.0748     5260
    80.3768     5238
    80.6788     3636
    80.9808     2924
    81.2828     2516
    81.5848     3481
    81.8868     3142
    82.1888     2806
    82.4908     2907
    82.7928     2638
    83.0947     2703
    83.3967     2774
    83.6987     2470
    84.0007     2516
    84.3027     2642
    84.6047     2582
    84.9067     2753
    85.2087     3710
    85.5107     3273
    85.8127     2625
    86.1147     2642
    86.4167     2725
    86.7187     2845
    87.0207     3231
    87.3227     2786
    87.6247     3160
    87.9267     3681
    88.2287     3228
    88.5307     2569
    88.8327     3345
    89.1347     3197
    89.4367     2708
    89.7387     3802
    90.0407     3384
    90.3427     2763
    90.6447     3189
    90.9467     3035
    91.2487     2963
    91.5507     3187
    91.8526     2776
    92.1546     3052
    92.4566     2847
    92.7586     2611
    93.0606     2509
    93.3626     3060
    93.6646     3018
    93.9666     2682
    94.2686     2932
    94.5706     2672
    94.8726     2481
    95.1746     2315
    95.4766     2465
    95.7786     2487
    96.0806     2561
    96.3826     3400
    96.6846     2942
    96.9866     2594
    97.2886     3397
    97.5906     2937
    97.8926     2650
    98.1946     2944
    98.4966     3242
    98.7986     4232
    99.1006     3575
    99.4026     3035
    99.7046     3573
    99.9934     2859