Folder: data-NaMO2F2/powder_X-ray_diffraction/variable-temperature_experiments/NaTaO2F2/raw_data (part 2)

File: 100°C.XY
! Initial file:   D:\ZAKARY_OUAIL\MA_THESE\Deuxième_année_de_thèse\DRX\Manips_DRX\1st_NaTaO2F2_XRK900\NaTaO2F2-Lent_100°C.xrdml
! Initial format:  58
! WAVE (A):      1.54060     1.54060     1.00000
! REM : data have been multiplied by     1.0000
! X_data : 2 Theta (deg.)
! Y_data : Intensity (arb. units)
!     X         Y
!--------------------------------------------------------------------------------
    10.0116     7149
    10.3136     6840
    10.6156     6629
    10.9176     7383
    11.2196    12543
    11.5216     6553
    11.8236     6424
    12.1256     6370
    12.4276     6123
    12.7296     5930
    13.0316     5914
    13.3336     5805
    13.6356     5683
    13.9376     5378
    14.2395     5408
    14.5415     5271
    14.8435     5200
    15.1455     5096
    15.4475     5151
    15.7495     4998
    16.0515     4993
    16.3535     5063
    16.6555     4971
    16.9575     4735
    17.2595     4959
    17.5615     4764
    17.8635     4711
    18.1655     4523
    18.4675     4449
    18.7695     4448
    19.0715     4732
    19.3735     4832
    19.6755    63354
    19.9775     4957
    20.2795     4694
    20.5815     4306
    20.8835     4183
    21.1855     4093
    21.4875     4079
    21.7895     4126
    22.0915     4091
    22.3935    19338
    22.6954     4013
    22.9974     3881
    23.2994     3848
    23.6014     4072
    23.9034     4306
    24.2054    43194
    24.5074    28569
    24.8094     3787
    25.1114     3910
    25.4134     3677
    25.7154     3598
    26.0174     3713
    26.3194     3572
    26.6214     3530
    26.9234     3607
    27.2254     3619
    27.5274     4455
    27.8294    57113
    28.1314     3847
    28.4334     3763
    28.7354     3469
    29.0374     3714
    29.3394    24703
    29.6414     4182
    29.9434     3409
    30.2454     3357
    30.5474     3207
    30.8494     3119
    31.1514     3177
    31.4533     3084
    31.7553     3135
    32.0573     3185
    32.3593     3170
    32.6613     3829
    32.9633     4385
    33.2653    29183
    33.5673     4208
    33.8693    30916
    34.1713     3261
    34.4733     3176
    34.7753    10369
    35.0773     3859
    35.3793     2931
    35.6813     2846
    35.9833     2919
    36.2853     2997
    36.5873     3243
    36.8893     3053
    37.1913     2938
    37.4933     7221
    37.7953     3367
    38.0973     2753
    38.3993     2847
    38.7013     2780
    39.0033     2757
    39.3053     2701
    39.6073     2795
    39.9092     3266
    40.2112     4963
    40.5132     3964
    40.8152     2988
    41.1172     7703
    41.4192     7449
    41.7212     2758
    42.0232     2715
    42.3252     2698
    42.6272     2576
    42.9292     2753
    43.2312     2600
    43.5332     3092
    43.8352     2602
    44.1372     2751
    44.4392     2901
    44.7412     4029
    45.0432     2639
    45.3452     2525
    45.6472     3865
    45.9492     2875
    46.2512     3054
    46.5532     2937
    46.8552     2654
    47.1572     4335
    47.4592     3037
    47.7612     4410
    48.0632     6392
    48.3652     4942
    48.6671     4882
    48.9691     8065
    49.2711     2814
    49.5731     3345
    49.8751     3454
    50.1771    12708
    50.4791     3436
    50.7811     6902
    51.0831     2808
    51.3851     3014
    51.6871     5419
    51.9891     2770
    52.2911     2833
    52.5931    10801
    52.8951     2992
    53.1971     4233
    53.4991     3198
    53.8011     2886
    54.1031     2539
    54.4051     2846
    54.7071     2631
    55.0091     2628
    55.3111     2851
    55.6131     7368
    55.9151     3501
    56.2171     3106
    56.5191     8841
    56.8211     2928
    57.1231     4537
    57.4250     9462
    57.7270     2988
    58.0290     4730
    58.3310     3117
    58.6330     4760
    58.9350     8024
    59.2370     9238
    59.5390     3226
    59.8410     8164
    60.1430     5124
    60.4450     2758
    60.7470     8457
    61.0490     7297
    61.3510     3589
    61.6530     2623
    61.9550     2544
    62.2570     2477
    62.5590     2473
    62.8610     2362
    63.1630     2429
    63.4650     2535
    63.7670     3481
    64.0690     2565
    64.3710     3509
    64.6730     2500
    64.9750     2425
    65.2770     2604
    65.5790     2439
    65.8810     2342
    66.1829     2287
    66.4849     2382
    66.7869     2549
    67.0889     2328
    67.3909     2312
    67.6929     2381
    67.9949     2772
    68.2969     2789
    68.5989     2722
    68.9009     2865
    69.2029     2590
    69.5049     3355
    69.8069     3302
    70.1089     4853
    70.4109     4068
    70.7129     4039
    71.0149     3418
    71.3169     5803
    71.6189     2756
    71.9209     3567
    72.2229     2932
    72.5249     2540
    72.8269     3525
    73.1289     2630
    73.4309     3351
    73.7329     3308
    74.0349     2905
    74.3369     3911
    74.6388     2335
    74.9408     2265
    75.2428     2322
    75.5448     2249
    75.8468     2454
    76.1488     2757
    76.4508     4698
    76.7528     2806
    77.0548     2873
    77.3568     3291
    77.6588     3115
    77.9608     2524
    78.2628     2778
    78.5648     3383
    78.8668     3531
    79.1688     4028
    79.4708     3304
    79.7728     3471
    80.0748     2867
    80.3768     6798
    80.6788     5030
    80.9808     3513
    81.2828     3631
    81.5848     2741
    81.8868     2388
    82.1888     4055
    82.4908     3501
    82.7928     2676
    83.0947     2536
    83.3967     2520
    83.6987     2683
    84.0007     2612
    84.3027     2417
    84.6047     2407
    84.9067     2348
    85.2087     2412
    85.5107     2989
    85.8127     3623
    86.1147     2755
    86.4167     2424
    86.7187     2523
    87.0207     2999
    87.3227     3268
    87.6247     3016
    87.9267     3379
    88.2287     3079
    88.5307     3178
    88.8327     2868
    89.1347     3044
    89.4367     2857
    89.7387     2637
    90.0407     2661
    90.3427     3253
    90.6447     3221
    90.9467     3264
    91.2487     3214
    91.5507     2930
    91.8526     3380
    92.1546     2919
    92.4566     2543
    92.7586     2927
    93.0606     3094
    93.3626     2642
    93.6646     2416
    93.9666     2299
    94.2686     3024
    94.5706     2803
    94.8726     3421
    95.1746     2831
    95.4766     2328
    95.7786     2366
    96.0806     2290
    96.3826     2372
    96.6846     2526
    96.9866     3431
    97.2886     3444
    97.5906     3243
    97.8926     2943
    98.1946     2659
    98.4966     2434
    98.7986     3759
    99.1006     4540
    99.4026     3544
    99.7046     3463
    99.9934     3573

File: 120°C.XY
! Initial file:   D:\ZAKARY_OUAIL\MA_THESE\Deuxième_année_de_thèse\DRX\Manips_DRX\1st_NaTaO2F2_XRK900\NaTaO2F2-Lent_120°C.xrdml
! Initial format:  58
! WAVE (A):      1.54060     1.54060     1.00000
! REM : data have been multiplied by     1.0000
! X_data : 2 Theta (deg.)
! Y_data : Intensity (arb. units)
!     X         Y
!--------------------------------------------------------------------------------
    10.0116     7127
    10.3136     6942
    10.6156     6763
    10.9176     7109
    11.2196    12106
    11.5216     6373
    11.8236     6289
    12.1256     6132
    12.4276     5962
    12.7296     5922
    13.0316     5743
    13.3336     5553
    13.6356     5491
    13.9376     5353
    14.2395     5259
    14.5415     5179
    14.8435     5144
    15.1455     5170
    15.4475     4971
    15.7495     4859
    16.0515     5055
    16.3535     5099
    16.6555     4889
    16.9575     4831
    17.2595     4926
    17.5615     4591
    17.8635     4501
    18.1655     4457
    18.4675     4410
    18.7695     4323
    19.0715     4632
    19.3735     4780
    19.6755    79490
    19.9775     4907
    20.2795     4562
    20.5815     4230
    20.8835     4281
    21.1855     3972
    21.4875     3929
    21.7895     4052
    22.0915     4052
    22.3935    18496
    22.6954     3980
    22.9974     3786
    23.2994     3781
    23.6014     3896
    23.9034     4191
    24.2054    43527
    24.5074    24639
    24.8094     3668
    25.1114     3771
    25.4134     3757
    25.7154     3532
    26.0174     3737
    26.3194     3626
    26.6214     3419
    26.9234     3675
    27.2254     3695
    27.5274     4481
    27.8294    53721
    28.1314     3737
    28.4334     3765
    28.7354     3594
    29.0374     3738
    29.3394    24375
    29.6414     4084
    29.9434     3372
    30.2454     3266
    30.5474     3251
    30.8494     3198
    31.1514     3214
    31.4533     3109
    31.7553     3010
    32.0573     3078
    32.3593     3283
    32.6613     3807
    32.9633     3941
    33.2653    32369
    33.5673     4372
    33.8693    27288
    34.1713     3273
    34.4733     3191
    34.7753     8809
    35.0773     3433
    35.3793     2979
    35.6813     2880
    35.9833     2867
    36.2853     2933
    36.5873     3344
    36.8893     3186
    37.1913     3070
    37.4933     6757
    37.7953     3471
    38.0973     2721
    38.3993     2849
    38.7013     2804
    39.0033     2792
    39.3053     2676
    39.6073     2963
    39.9092     3259
    40.2112     4346
    40.5132     3755
    40.8152     2971
    41.1172     8539
    41.4192     7913
    41.7212     2800
    42.0232     2646
    42.3252     2594
    42.6272     2588
    42.9292     2779
    43.2312     2714
    43.5332     3049
    43.8352     2641
    44.1372     2823
    44.4392     2754
    44.7412     4218
    45.0432     2731
    45.3452     2604
    45.6472     4706
    45.9492     2841
    46.2512     3040
    46.5532     2939
    46.8552     2674
    47.1572     5995
    47.4592     3075
    47.7612     5237
    48.0632     4907
    48.3652     6255
    48.6671     4390
    48.9691     6723
    49.2711     2774
    49.5731     3206
    49.8751     3573
    50.1771    10503
    50.4791     3743
    50.7811     5097
    51.0831     2765
    51.3851     3280
    51.6871     4079
    51.9891     2843
    52.2911     2828
    52.5931    10504
    52.8951     3206
    53.1971     4106
    53.4991     3314
    53.8011     2700
    54.1031     2644
    54.4051     2895
    54.7071     2644
    55.0091     2590
    55.3111     3000
    55.6131     5627
    55.9151     2984
    56.2171     3337
    56.5191     9438
    56.8211     2832
    57.1231     6461
    57.4250     7179
    57.7270     3016
    58.0290     4715
    58.3310     3176
    58.6330     6592
    58.9350     5134
    59.2370     5785
    59.5390     3108
    59.8410     7601
    60.1430     4607
    60.4450     2867
    60.7470    10354
    61.0490     6858
    61.3510     3776
    61.6530     2645
    61.9550     2449
    62.2570     2472
    62.5590     2524
    62.8610     2379
    63.1630     2434
    63.4650     2588
    63.7670     3107
    64.0690     2806
    64.3710     3818
    64.6730     2383
    64.9750     2596
    65.2770     2496
    65.5790     2383
    65.8810     2434
    66.1829     2339
    66.4849     2350
    66.7869     2612
    67.0889     2425
    67.3909     2261
    67.6929     2292
    67.9949     2872
    68.2969     2920
    68.5989     2618
    68.9009     3078
    69.2029     2856
    69.5049     3858
    69.8069     3614
    70.1089     5856
    70.4109     3600
    70.7129     4001
    71.0149     4026
    71.3169     4495
    71.6189     2852
    71.9209     3775
    72.2229     2934
    72.5249     2575
    72.8269     2873
    73.1289     2855
    73.4309     3553
    73.7329     3055
    74.0349     3750
    74.3369     3989
    74.6388     2452
    74.9408     2303
    75.2428     2324
    75.5448     2405
    75.8468     2432
    76.1488     2885
    76.4508     4252
    76.7528     2622
    77.0548     3495
    77.3568     3443
    77.6588     2999
    77.9608     2494
    78.2628     2667
    78.5648     3177
    78.8668     3785
    79.1688     3650
    79.4708     3818
    79.7728     3384
    80.0748     3042
    80.3768     6489
    80.6788     4882
    80.9808     3684
    81.2828     3529
    81.5848     2585
    81.8868     2435
    82.1888     4299
    82.4908     3180
    82.7928     2817
    83.0947     2393
    83.3967     2664
    83.6987     2936
    84.0007     2807
    84.3027     2429
    84.6047     2321
    84.9067     2443
    85.2087     2501
    85.5107     2945
    85.8127     3359
    86.1147     2643
    86.4167     2462
    86.7187     2595
    87.0207     3234
    87.3227     2875
    87.6247     3366
    87.9267     3954
    88.2287     2970
    88.5307     3792
    88.8327     3032
    89.1347     3199
    89.4367     3020
    89.7387     2806
    90.0407     2827
    90.3427     2997
    90.6447     3052
    90.9467     2966
    91.2487     3589
    91.5507     3016
    91.8526     3002
    92.1546     3021
    92.4566     2673
    92.7586     2954
    93.0606     2795
    93.3626     2402
    93.6646     2400
    93.9666     2388
    94.2686     2818
    94.5706     2590
    94.8726     3296
    95.1746     2811
    95.4766     2376
    95.7786     2347
    96.0806     2216
    96.3826     2536
    96.6846     2597
    96.9866     3307
    97.2886     3332
    97.5906     3325
    97.8926     2828
    98.1946     2592
    98.4966     2449
    98.7986     3833
    99.1006     4573
    99.4026     3767
    99.7046     3135
    99.9934     3637

File: 140°C.XY
! Initial file:   D:\ZAKARY_OUAIL\MA_THESE\Deuxième_année_de_thèse\DRX\Manips_DRX\1st_NaTaO2F2_XRK900\NaTaO2F2-Lent_140°C.xrdml
! Initial format:  58
! WAVE (A):      1.54060     1.54060     1.00000
! REM : data have been multiplied by     1.0000
! X_data : 2 Theta (deg.)
! Y_data : Intensity (arb. units)
!     X         Y
!--------------------------------------------------------------------------------
    10.0116     6876
    10.3136     6667
    10.6156     6503
    10.9176     7238
    11.2196    11568
    11.5216     6413
    11.8236     6232
    12.1256     6000
    12.4276     5829
    12.7296     5760
    13.0316     5671
    13.3336     5597
    13.6356     5454
    13.9376     5385
    14.2395     5236
    14.5415     5253
    14.8435     5249
    15.1455     5079
    15.4475     5121
    15.7495     4972
    16.0515     4928
    16.3535     4946
    16.6555     4878
    16.9575     4683
    17.2595     4868
    17.5615     4499
    17.8635     4523
    18.1655     4417
    18.4675     4277
    18.7695     4363
    19.0715     4642
    19.3735     4766
    19.6755    95606
    19.9775     4881
    20.2795     4487
    20.5815     4283
    20.8835     4111
    21.1855     3976
    21.4875     4027
    21.7895     4085
    22.0915     3935
    22.3935    17604
    22.6954     3878
    22.9974     3743
    23.2994     3723
    23.6014     3957
    23.9034     4164
    24.2054    43704
    24.5074    21485
    24.8094     3816
    25.1114     3689
    25.4134     3657
    25.7154     3536
    26.0174     3579
    26.3194     3505
    26.6214     3522
    26.9234     3645
    27.2254     3671
    27.5274     4575
    27.8294    48588
    28.1314     3715
    28.4334     3806
    28.7354     3549
    29.0374     3805
    29.3394    24298
    29.6414     3794
    29.9434     3468
    30.2454     3261
    30.5474     3206
    30.8494     3197
    31.1514     3148
    31.4533     3234
    31.7553     3034
    32.0573     3135
    32.3593     3186
    32.6613     4005
    32.9633     3767
    33.2653    34441
    33.5673     4381
    33.8693    22248
    34.1713     3211
    34.4733     3288
    34.7753     8944
    35.0773     3278
    35.3793     3066
    35.6813     2853
    35.9833     2902
    36.2853     2923
    36.5873     3432
    36.8893     3194
    37.1913     3183
    37.4933     6801
    37.7953     3306
    38.0973     2739
    38.3993     2671
    38.7013     2838
    39.0033     2813
    39.3053     2724
    39.6073     2901
    39.9092     3162
    40.2112     3779
    40.5132     3567
    40.8152     3077
    41.1172    10769
    41.4192     7254
    41.7212     2740
    42.0232     2733
    42.3252     2684
    42.6272     2641
    42.9292     2715
    43.2312     2540
    43.5332     3038
    43.8352     2571
    44.1372     3013
    44.4392     2873
    44.7412     3835
    45.0432     2601
    45.3452     2805
    45.6472     6192
    45.9492     2929
    46.2512     3084
    46.5532     2961
    46.8552     2769
    47.1572     7643
    47.4592     3092
    47.7612     6837
    48.0632     3999
    48.3652     8458
    48.6671     3910
    48.9691     5385
    49.2711     2798
    49.5731     3331
    49.8751     3767
    50.1771     8356
    50.4791     4611
    50.7811     3818
    51.0831     2800
    51.3851     3786
    51.6871     3798
    51.9891     2740
    52.2911     2732
    52.5931     9724
    52.8951     3544
    53.1971     3505
    53.4991     3429
    53.8011     2827
    54.1031     2716
    54.4051     3021
    54.7071     2718
    55.0091     2731
    55.3111     3023
    55.6131     6461
    55.9151     2992
    56.2171     3529
    56.5191     8782
    56.8211     2917
    57.1231     8213
    57.4250     5087
    57.7270     3063
    58.0290     5081
    58.3310     3327
    58.6330     8332
    58.9350     4819
    59.2370     4862
    59.5390     3110
    59.8410     8093
    60.1430     4120
    60.4450     2935
    60.7470    10514
    61.0490     5514
    61.3510     3691
    61.6530     2530
    61.9550     2493
    62.2570     2462
    62.5590     2528
    62.8610     2437
    63.1630     2445
    63.4650     2577
    63.7670     3011
    64.0690     3074
    64.3710     3644
    64.6730     2388
    64.9750     2694
    65.2770     2581
    65.5790     2388
    65.8810     2396
    66.1829     2331
    66.4849     2461
    66.7869     2331
    67.0889     2318
    67.3909     2379
    67.6929     2398
    67.9949     2958
    68.2969     3072
    68.5989     2804
    68.9009     3752
    69.2029     2829
    69.5049     4143
    69.8069     3860
    70.1089     6264
    70.4109     3659
    70.7129     3531
    71.0149     4281
    71.3169     3444
    71.6189     3081
    71.9209     3998
    72.2229     2806
    72.5249     2599
    72.8269     2841
    73.1289     3427
    73.4309     3488
    73.7329     3258
    74.0349     5149
    74.3369     3917
    74.6388     2499
    74.9408     2412
    75.2428     2387
    75.5448     2387
    75.8468     2554
    76.1488     2957
    76.4508     3490
    76.7528     2596
    77.0548     4388
    77.3568     3175
    77.6588     2750
    77.9608     2616
    78.2628     2760
    78.5648     3012
    78.8668     4099
    79.1688     3159
    79.4708     4155
    79.7728     3299
    80.0748     3176
    80.3768     6110
    80.6788     5029
    80.9808     3560
    81.2828     3161
    81.5848     2558
    81.8868     2549
    82.1888     3788
    82.4908     3100
    82.7928     3051
    83.0947     2419
    83.3967     2694
    83.6987     3376
    84.0007     2833
    84.3027     2387
    84.6047     2465
    84.9067     2450
    85.2087     2530
    85.5107     3079
    85.8127     3513
    86.1147     2619
    86.4167     2791
    86.7187     2820
    87.0207     2911
    87.3227     2777
    87.6247     2975
    87.9267     3684
    88.2287     2878
    88.5307     3804
    88.8327     2903
    89.1347     3257
    89.4367     2674
    89.7387     2929
    90.0407     2832
    90.3427     3237
    90.6447     2898
    90.9467     2746
    91.2487     3518
    91.5507     3156
    91.8526     3065
    92.1546     2723
    92.4566     2770
    92.7586     3076
    93.0606     2842
    93.3626     2441
    93.6646     2332
    93.9666     2531
    94.2686     2837
    94.5706     2699
    94.8726     2941
    95.1746     2639
    95.4766     2307
    95.7786     2428
    96.0806     2361
    96.3826     2525
    96.6846     2734
    96.9866     2816
    97.2886     2641
    97.5906     3148
    97.8926     2746
    98.1946     2469
    98.4966     2546
    98.7986     3575
    99.1006     4597
    99.4026     3976
    99.7046     3032
    99.9934     3413