Folder: data-NaMO2F2/powder_X-ray_diffraction/room_temperature_experiments/NaNbO2F2/raw_data

Note: powder_X-ray_diffraction/README.md
# Powder X-Ray Diffraction Data for NaMO<sub>2</sub>F<sub>2</sub> (M = Nb<sup>5+</sup>, Ta<sup>5+</sup>)

**Author:** Ouail Zakary  
**ORCID:** [0000-0002-7793-3306](https://orcid.org/0000-0002-7793-3306)  
**E-mail:** [Ouail.Zakary@oulu.fi](mailto:Ouail.Zakary@oulu.fi)  
**Website:** [Ouail Zakary - webpage](https://cc.oulu.fi/~nmrwww/members/Ouail_Zakary.html)

This repository contains datasets of **Powder X-Ray Diffraction (PXRD)** data for the compounds NaNbO<sub>2</sub>F<sub>2</sub> and NaTaO<sub>2</sub>F<sub>2</sub>, recorded under both room temperature (RT) and variable temperature conditions.

## Overview of the Data

The dataset is organized into two main families of experiments:

1. **Room Temperature PXRD Data:**  
   **Folder:** `./room_temperature_experiments`
   - **NaNbO<sub>2</sub>F<sub>2</sub> Data:**  
     - [Raw Data](./room_temperature_experiments/NaNbO2F2/raw_data/)
     - [Rietveld Refinement Data](./room_temperature_experiments/NaNbO2F2/Rietveld_refinement/)
   - **NaTaO<sub>2</sub>F<sub>2</sub> Data:**  
     - [Raw Data](./room_temperature_experiments/NaTaO2F2/raw_data/)
     - [Rietveld Refinement Data](./room_temperature_experiments/NaTaO2F2/Rietveld_refinement/)

2. **Variable Temperature PXRD Data:**  
   **Folder:** `./variable-temperature_experiments`
   - **NaNbO<sub>2</sub>F<sub>2</sub> Data:**  
     - [Raw Data](./variable-temperature_experiments/NaNbO2F2/raw_data/)
     - [Rietveld Refinement Data](./variable-temperature_experiments/NaNbO2F2/Rietveld_refinement/)
   - **NaTaO<sub>2</sub>F<sub>2</sub> Data:**  
     - [Raw Data](./variable-temperature_experiments/NaTaO2F2/raw_data/)
     - [Rietveld Refinement Data](./variable-temperature_experiments/NaTaO2F2/Rietveld_refinement/)

## Methods

### PXRD Data Collection

Both RT and temperature-controlled PXRD patterns were recorded using a **PANalytical θ/θ Bragg–Brentano EMPYREAN** diffractometer (CuKα<sub>1+2</sub> radiations) equipped with a **PIXcel1D detector**. The collection methods are as follows:

- **Room Temperature PXRD Patterns:**  
  - **2θ Range:** 5° to 135°  
  - **Step Size:** 0.0131°  
  - **Total Acquisition Time:** Approximately 7h 30m  
  - **Sample Preparation:** Raw powders were dusted through a 63 μm sieve on a glass holder to minimize preferential grain orientation.

- **Temperature-Controlled PXRD Patterns:**  
  - **Temperature Range:** RT to 300°C using a **HTK 900 Anton Paar furnace attachment**  
  - **Sample Holder:** Glass ceramic Macor  
  - **Data Collection Intervals:** 20°C (25–220°C) and 10°C (220–300°C) increments with a heating rate of 5°C/min  
  - **Temperature Stabilization:** 20 minutes before each measurement  
  - **2θ Range:** 10° to 100°  
  - **Step Size:** 0.0131°  
  - **Total Acquisition Time:** 3 hours for each pattern.

### Rietveld Refinement

The **Rietveld refinement method** was employed for both the RT and temperature-controlled PXRD data using the **FullProf** software.

## Directory Structure

The foll

File: NaNbO2F2_rt.XY
! Initial file:   .\NaNbO2F2_rt.xrdml
! Initial format:  58
! WAVE (A):      1.54060     1.54060     1.00000
! REM : data have been multiplied by     1.0000
! X_data : 2 Theta (deg.)
! Y_data : Intensity (arb. units)
!     X         Y
!--------------------------------------------------------------------------------
     5.0299    25758
     5.4632    25002
     5.8965    25315
     6.3298    25244
     6.7631    25576
     7.1964    25740
     7.6297    25773
     8.0630    25751
     8.4963    26110
     8.9296    25981
     9.3629    25564
     9.7962    24961
    10.2295    25145
    10.6628    24674
    11.0961    25679
    11.5294    25355
    11.9627    23057
    12.3960    22826
    12.8293    22252
    13.2626    21914
    13.6959    21641
    14.1292    20575
    14.5625    27475
    14.9958    20138
    15.4291    19321
    15.8624    19088
    16.2957    18443
    16.7290    18297
    17.1623    17540
    17.5956    17387
    18.0289    17632
    18.4622    16635
    18.8955    16138
    19.3288    17054
    19.7621    21366
    20.1954    21617
    20.6287    16215
    21.0620    15762
    21.4953    15538
    21.9286    15562
    22.3619    15157
    22.7952    46260
    23.2285    14992
    23.6618    16217
    24.0951    20335
    24.5284    17042
    24.9617    14420
    25.3950    14969
    25.8283    14274
    26.2616    14200
    26.6949    13608
    27.1282    13578
    27.5615    14042
    27.9948    25445
    28.4281    17937
    28.8614    15674
    29.2947    22364
    29.7280    13762
    30.1613    12842
    30.5946    12712
    31.0279    12279
    31.4612    11912
    31.8945    11834
    32.3278    12175
    32.7611    12132
    33.1944    59604
    33.6277    11902
    34.0610    22163
    34.4943    15775
    34.9276    11945
    35.3608    14034
    35.7941    10730
    36.2274    10553
    36.6607    16261
    37.0940    10218
    37.5273    10320
    37.9606    32624
    38.3939    10387
    38.8272     9748
    39.2605    10853
    39.6938     9952
    40.1271     9989
    40.5604    17769
    40.9937     9802
    41.4270    28889
    41.8603     9506
    42.2936     9584
    42.7269     9253
    43.1602     9307
    43.5935     9570
    44.0268     9669
    44.4601     9338
    44.8934    24498
    45.3267     9420
    45.7600     8776
    46.1933     9999
    46.6266    10574
    47.0599     9109
    47.4932     9870
    47.9265    18065
    48.3598    14002
    48.7931    13109
    49.2264    10178
    49.6597    27264
    50.0930    27954
    50.5263     9869
    50.9596    15268
    51.3929     9952
    51.8262    29751
    52.2595    12910
    52.6928    11165
    53.1261     8764
    53.5594     9179
    53.9927     8138
    54.4260     8118
    54.8593     8006
    55.2926     8321
    55.7259    11659
    56.1592    27479
    56.5925    10646
    57.0258    22959
    57.4591    10029
    57.8924     9221
    58.3257    16767
    58.7590     8435
    59.1923    17286
    59.6256    18812
    60.0589     9766
    60.4922     9725
    60.9255    15655
    61.3588     8857
    61.7921    21933
    62.2254     7680
    62.6587     7534
    63.0920     7619
    63.5253     8136
    63.9586    12079
    64.3919     7436
    64.8252    10692
    65.2585     7282
    65.6918     7710
    66.1251     7063
    66.5584     7454
    66.9917     7073
    67.4250     7261
    67.8583     6892
    68.2916     7063
    68.7249     7103
    69.1582     7284
    69.5915    12422
    70.0248    13433
    70.4581     7025
    70.8914     7616
    71.3247     8237
    71.7580     7245
    72.1913     9022
    72.6246     8965
    73.0579     7460
    73.4912     7582
    73.9245     9863
    74.3578     7573
    74.7911    12283
    75.2244     7601
    75.6577     6692
    76.0910     7339
    76.5243     7244
    76.9576     6954
    77.3909    12960
    77.8242     8602
    78.2575     6884
    78.6908     6422
    79.1241     6864
    79.5574     8100
    79.9907     9666
    80.4240     7620
    80.8573     7202
    81.2906     7928
    81.7239     8269
    82.1572     7898
    82.5905     6715
    83.0238     8078
    83.4571     7414
    83.8904     6273
    84.3237     6096
    84.7570     6491
    85.1903     7455
    85.6236     6664
    86.0569     7136
    86.4902     6135
    86.9235     7029
    87.3568     9818
    87.7901     7699
    88.2234     6890
    88.6567     8030
    89.0900     7572
    89.5233     8000
    89.9566     9155
    90.3899     7787
    90.8232     6008
    91.2565     6023
    91.6898     6135
    92.1231     6719
    92.5564     8678
    92.9897     7354
    93.4230     6139
    93.8563     6150
    94.2896     5989
    94.7229     6554
    95.1562     6195
    95.5895     7786
    96.0228     7012
    96.4561     6805
    96.8894     5793
    97.3227     5547
    97.7560     7718
    98.1893     6950
    98.6226     6069
    99.0559     6964
    99.4892     6476
    99.9224     5896
   100.3558     5562
   100.7890     5798
   101.2224     6216
   101.6556     6113
   102.0889     5893
   102.5222     5945
   102.9555     6192
   103.3888     5951
   103.8221     5708
   104.2554     5894
   104.6887     6118
   105.1220     5906
   105.5553     5687
   105.9886     5859
   106.4219     7302
   106.8552     5939
   107.2885     5579
   107.7218     6596
   108.1551     7910
   108.5884     7387
   109.0217     7153
   109.4550     6276
   109.8883     5959
   110.3216     6676
   110.7549     7206
   111.1882     6599
   111.6215     6228
   112.0548     6086
   112.4881     5925
   112.9214     5703
   113.3547     6072
   113.7880     6513
   114.2213     6383
   114.6546     6873
   115.0879     6631
   115.5212     6300
   115.9545     6433
   116.3878     6254
   116.8211     6089
   117.2544     6883
   117.6877     6444
   118.1210     6210
   118.5543     7560
   118.9876     7611
   119.4209     7589
   119.8542     7720
   120.2875     7269
   120.7208     6733
   121.1541     6793
   121.5874     6530
   122.0207     6820
   122.4540     6967
   122.8873     7750
   123.3206     7462
   123.7539     8241
   124.1872     7334
   124.6205     7603
   125.0538     6959
   125.4871     6277
   125.9204     6022
   126.3537     6163
   126.7870     6556
   127.2203     7754
   127.6536     6848
   128.0869     6955
   128.5202     6624
   128.9535     6556
   129.3868     6439
   129.8201     6667
   130.2534     7232
   130.6867     7225
   131.1200     7374
   131.5533     6439
   131.9866     6686
   132.4199     6821
   132.8532     6452
   133.2865     6715
   133.7198     6490
   134.1531     6770
   134.5864     6582
   134.9934     6687